participant_id,trial_participant,difficulty,signal,stimulus_type,trial_in_condition,rt,choice,correct_choice,accuracy
1,1,easy,present,simple,1,0.661,1,1,1
1,2,easy,present,simple,2,0.605,1,1,1
1,3,easy,present,simple,3,0.726,1,1,1
1,4,easy,present,simple,4,0.612,1,1,1
1,5,easy,present,simple,5,1.070,1,1,1
1,6,easy,present,simple,6,0.590,1,1,1
1,7,easy,present,simple,7,0.869,1,1,1
1,8,easy,present,simple,8,0.652,1,1,1
1,9,easy,present,simple,9,0.676,1,1,1
1,10,easy,present,simple,10,1.221,1,1,1
1,11,easy,present,simple,11,0.461,1,1,1
1,12,easy,present,simple,12,0.473,1,1,1
1,13,easy,present,simple,13,0.436,1,1,1
1,14,easy,present,simple,14,0.932,1,1,1
1,15,easy,present,simple,15,0.853,1,1,1
1,16,easy,present,simple,16,1.014,1,1,1
1,17,easy,present,simple,17,0.877,1,1,1
1,18,easy,present,simple,18,0.623,1,1,1
1,19,easy,present,simple,19,0.854,1,1,1
1,20,easy,present,simple,20,0.482,1,1,1
1,21,easy,present,simple,21,0.725,1,1,1
1,22,easy,present,simple,22,0.491,1,1,1
1,23,easy,present,simple,23,1.385,1,1,1
1,24,easy,present,simple,24,0.652,1,1,1
1,25,easy,present,simple,25,0.596,1,1,1
1,26,easy,present,simple,26,0.539,1,1,1
1,27,easy,present,simple,27,0.846,1,1,1
1,28,easy,present,simple,28,0.617,1,1,1
1,29,easy,present,simple,29,0.679,1,1,1
1,30,easy,present,simple,30,0.434,1,1,1
1,31,easy,present,simple,31,0.708,1,1,1
1,32,easy,present,simple,32,0.704,1,1,1
1,33,easy,present,simple,33,0.707,1,1,1
1,34,easy,present,simple,34,1.375,1,1,1
1,35,easy,present,simple,35,0.755,1,1,1
1,36,easy,present,simple,36,0.578,1,1,1
1,37,easy,present,simple,37,0.605,1,1,1
1,38,easy,present,simple,38,0.765,1,1,1
1,39,easy,present,simple,39,0.460,1,1,1
1,40,easy,present,simple,40,0.744,1,1,1
1,41,easy,present,simple,41,0.746,1,1,1
1,42,easy,present,simple,42,0.515,1,1,1
1,43,easy,present,simple,43,0.490,1,1,1
1,44,easy,present,simple,44,0.556,1,1,1
1,45,easy,present,simple,45,0.576,1,1,1
1,46,easy,present,simple,46,0.678,1,1,1
1,47,easy,present,simple,47,0.611,1,1,1
1,48,easy,present,simple,48,0.480,1,1,1
1,49,easy,present,simple,49,0.518,1,1,1
1,50,easy,present,simple,50,0.503,1,1,1
1,51,easy,present,simple,51,0.732,1,1,1
1,52,easy,present,simple,52,0.539,1,1,1
1,53,easy,present,simple,53,0.621,1,1,1
1,54,easy,present,simple,54,0.535,1,1,1
1,55,easy,present,simple,55,0.504,1,1,1
1,56,easy,present,simple,56,0.483,1,1,1
1,57,easy,present,simple,57,0.735,1,1,1
1,58,easy,present,simple,58,0.494,1,1,1
1,59,easy,present,simple,59,0.515,1,1,1
1,60,easy,present,simple,60,0.583,1,1,1
1,61,easy,present,simple,61,0.912,1,1,1
1,62,easy,present,simple,62,0.476,1,1,1
1,63,easy,present,simple,63,0.944,1,1,1
1,64,easy,present,simple,64,0.479,1,1,1
1,65,easy,present,simple,65,0.624,1,1,1
1,66,easy,present,simple,66,0.700,1,1,1
1,67,easy,present,simple,67,0.808,1,1,1
1,68,easy,present,simple,68,0.448,1,1,1
1,69,easy,present,simple,69,0.546,1,1,1
1,70,easy,present,simple,70,0.490,1,1,1
1,71,easy,present,simple,71,0.551,1,1,1
1,72,easy,present,simple,72,0.489,1,1,1
1,73,easy,present,simple,73,0.565,1,1,1
1,74,easy,present,simple,74,0.599,1,1,1
1,75,easy,present,simple,75,0.463,1,1,1
1,76,easy,present,simple,76,0.760,1,1,1
1,77,easy,present,simple,77,0.677,1,1,1
1,78,easy,present,simple,78,0.542,1,1,1
1,79,easy,present,simple,79,0.651,1,1,1
1,80,easy,present,simple,80,0.472,1,1,1
1,81,easy,present,simple,81,0.682,1,1,1
1,82,easy,present,simple,82,1.241,1,1,1
1,83,easy,present,simple,83,0.562,1,1,1
1,84,easy,present,simple,84,0.741,1,1,1
1,85,easy,present,simple,85,0.493,1,1,1
1,86,easy,present,simple,86,0.785,1,1,1
1,87,easy,present,simple,87,0.550,1,1,1
1,88,easy,present,simple,88,0.509,1,1,1
1,89,easy,present,simple,89,0.688,1,1,1
1,90,easy,present,simple,90,0.439,1,1,1
1,91,easy,present,simple,91,0.930,1,1,1
1,92,easy,present,simple,92,0.416,1,1,1
1,93,easy,present,simple,93,0.753,1,1,1
1,94,easy,present,simple,94,0.545,1,1,1
1,95,easy,present,simple,95,0.805,1,1,1
1,96,easy,present,simple,96,0.531,1,1,1
1,97,easy,present,simple,97,0.683,1,1,1
1,98,easy,present,simple,98,0.690,1,1,1
1,99,easy,present,simple,99,0.676,1,1,1
1,100,easy,present,simple,100,0.525,1,1,1
1,101,easy,present,simple,101,1.522,1,1,1
1,102,easy,present,simple,102,0.613,1,1,1
1,103,easy,present,simple,103,0.956,1,1,1
1,104,easy,present,simple,104,0.775,1,1,1
1,105,easy,present,simple,105,0.554,1,1,1
1,106,easy,present,simple,106,0.902,1,1,1
1,107,easy,present,simple,107,0.594,1,1,1
1,108,easy,present,simple,108,1.036,1,1,1
1,109,easy,present,simple,109,0.682,1,1,1
1,110,easy,present,simple,110,1.041,1,1,1
1,111,easy,present,simple,111,0.763,1,1,1
1,112,easy,present,simple,112,0.791,1,1,1
1,113,easy,present,simple,113,0.642,1,1,1
1,114,easy,present,simple,114,1.621,1,1,1
1,115,easy,present,simple,115,0.728,1,1,1
1,116,easy,present,simple,116,0.602,1,1,1
1,117,easy,present,simple,117,0.704,1,1,1
1,118,easy,present,simple,118,0.430,1,1,1
1,119,easy,present,simple,119,0.553,1,1,1
1,120,easy,present,simple,120,0.736,1,1,1
1,121,easy,present,simple,121,0.546,1,1,1
1,122,easy,present,simple,122,0.709,1,1,1
1,123,easy,present,simple,123,0.610,1,1,1
1,124,easy,present,simple,124,0.492,1,1,1
1,125,easy,present,simple,125,0.554,1,1,1
1,126,easy,present,simple,126,0.676,1,1,1
1,127,easy,present,simple,127,0.693,1,1,1
1,128,easy,present,simple,128,0.684,1,1,1
1,129,easy,present,simple,129,0.731,1,1,1
1,130,easy,present,simple,130,0.732,1,1,1
1,131,easy,present,simple,131,0.609,1,1,1
1,132,easy,present,simple,132,1.086,1,1,1
1,133,easy,present,simple,133,0.575,1,1,1
1,134,easy,present,simple,134,0.608,1,1,1
1,135,easy,present,simple,135,1.072,1,1,1
1,136,easy,present,simple,136,0.889,1,1,1
1,137,easy,present,simple,137,0.775,1,1,1
1,138,easy,present,simple,138,0.476,1,1,1
1,139,easy,present,simple,139,1.187,1,1,1
1,140,easy,present,simple,140,0.782,1,1,1
1,141,easy,present,simple,141,0.498,1,1,1
1,142,easy,present,simple,142,1.010,1,1,1
1,143,easy,present,simple,143,0.503,1,1,1
1,144,easy,present,simple,144,0.707,1,1,1
1,145,easy,present,simple,145,0.486,1,1,1
1,146,easy,present,simple,146,0.965,1,1,1
1,147,easy,present,simple,147,0.891,1,1,1
1,148,easy,present,simple,148,0.679,1,1,1
1,149,easy,present,simple,149,0.600,1,1,1
1,150,easy,present,simple,150,0.463,1,1,1
1,151,easy,present,simple,151,0.767,1,1,1
1,152,easy,present,simple,152,0.616,1,1,1
1,153,easy,present,simple,153,0.792,1,1,1
1,154,easy,present,simple,154,1.004,1,1,1
1,155,easy,present,simple,155,0.980,1,1,1
1,156,easy,present,simple,156,0.429,1,1,1
1,157,easy,present,simple,157,0.579,1,1,1
1,158,easy,present,simple,158,0.800,1,1,1
1,159,easy,present,simple,159,0.506,1,1,1
1,160,easy,present,simple,160,0.652,1,1,1
1,161,easy,present,simple,161,0.457,1,1,1
1,162,easy,present,simple,162,0.518,1,1,1
1,163,easy,present,simple,163,0.433,1,1,1
1,164,easy,present,simple,164,0.871,1,1,1
1,165,easy,present,simple,165,0.520,1,1,1
1,166,easy,present,simple,166,0.572,1,1,1
1,167,easy,present,simple,167,1.237,1,1,1
1,168,easy,present,simple,168,0.775,1,1,1
1,169,easy,present,simple,169,0.444,1,1,1
1,170,easy,present,simple,170,0.504,1,1,1
1,171,easy,present,simple,171,0.713,1,1,1
1,172,easy,present,simple,172,0.682,1,1,1
1,173,easy,present,simple,173,0.528,1,1,1
1,174,easy,present,simple,174,1.284,1,1,1
1,175,easy,present,simple,175,0.705,1,1,1
1,176,easy,present,simple,176,0.659,1,1,1
1,177,easy,present,simple,177,0.690,1,1,1
1,178,easy,present,simple,178,0.799,1,1,1
1,179,easy,present,simple,179,0.559,1,1,1
1,180,easy,present,simple,180,0.590,1,1,1
1,181,easy,present,simple,181,0.518,1,1,1
1,182,easy,present,simple,182,0.513,1,1,1
1,183,easy,present,simple,183,1.381,1,1,1
1,184,easy,present,simple,184,0.806,1,1,1
1,185,easy,present,simple,185,0.639,1,1,1
1,186,easy,present,simple,186,0.528,1,1,1
1,187,easy,present,simple,187,0.540,1,1,1
1,188,easy,present,simple,188,0.460,1,1,1
1,189,easy,present,simple,189,0.610,1,1,1
1,190,easy,present,simple,190,0.556,1,1,1
1,191,easy,present,simple,191,0.770,1,1,1
1,192,easy,present,simple,192,0.581,1,1,1
1,193,easy,present,simple,193,0.507,1,1,1
1,194,easy,present,simple,194,0.439,1,1,1
1,195,easy,present,simple,195,0.461,1,1,1
1,196,easy,present,simple,196,0.753,1,1,1
1,197,easy,present,simple,197,0.616,1,1,1
1,198,easy,present,simple,198,0.656,1,1,1
1,199,easy,present,simple,199,1.086,1,1,1
1,200,easy,present,simple,200,0.520,1,1,1
1,201,easy,present,simple,201,0.742,1,1,1
1,202,easy,present,simple,202,0.538,1,1,1
1,203,easy,present,simple,203,0.437,1,1,1
1,204,easy,present,simple,204,0.825,1,1,1
1,205,easy,present,simple,205,0.560,1,1,1
1,206,easy,present,simple,206,0.586,1,1,1
1,207,easy,present,simple,207,0.686,1,1,1
1,208,easy,present,simple,208,0.930,1,1,1
1,209,easy,present,simple,209,0.716,1,1,1
1,210,easy,present,simple,210,1.019,1,1,1
1,211,easy,present,simple,211,0.543,1,1,1
1,212,easy,present,simple,212,0.878,1,1,1
1,213,easy,present,simple,213,0.513,1,1,1
1,214,easy,present,simple,214,1.530,1,1,1
1,215,easy,present,simple,215,0.762,1,1,1
1,216,easy,present,simple,216,0.524,1,1,1
1,217,easy,present,simple,217,1.423,1,1,1
1,218,easy,present,simple,218,0.797,1,1,1
1,219,easy,present,simple,219,0.540,1,1,1
1,220,easy,present,simple,220,0.523,1,1,1
1,221,easy,present,simple,221,0.646,1,1,1
1,222,easy,present,simple,222,0.437,1,1,1
1,223,easy,present,simple,223,0.519,1,1,1
1,224,easy,present,simple,224,0.603,1,1,1
1,225,easy,present,simple,225,0.585,1,1,1
1,226,easy,present,simple,226,0.621,1,1,1
1,227,easy,present,simple,227,0.544,1,1,1
1,228,easy,present,simple,228,0.687,1,1,1
1,229,easy,present,simple,229,0.998,1,1,1
1,230,easy,present,simple,230,0.485,1,1,1
1,231,easy,present,simple,231,0.650,1,1,1
1,232,easy,present,simple,232,0.494,1,1,1
1,233,easy,present,simple,233,0.787,1,1,1
1,234,easy,present,simple,234,0.594,1,1,1
1,235,easy,present,simple,235,0.678,1,1,1
1,236,easy,present,simple,236,0.507,1,1,1
1,237,easy,present,simple,237,0.495,1,1,1
1,238,easy,present,simple,238,0.634,1,1,1
1,239,easy,present,simple,239,0.578,1,1,1
1,240,easy,present,simple,240,1.339,1,1,1
1,241,easy,present,simple,241,0.839,1,1,1
1,242,easy,present,simple,242,0.819,1,1,1
1,243,easy,present,simple,243,1.112,1,1,1
1,244,easy,present,simple,244,0.474,1,1,1
1,245,easy,present,simple,245,0.668,1,1,1
1,246,easy,present,simple,246,0.687,1,1,1
1,247,easy,present,simple,247,0.550,1,1,1
1,248,easy,present,simple,248,0.531,1,1,1
1,249,easy,present,simple,249,0.476,1,1,1
1,250,easy,present,simple,250,0.435,1,1,1
1,251,easy,present,simple,251,1.246,1,1,1
1,252,easy,present,simple,252,0.747,1,1,1
1,253,easy,present,simple,253,0.860,1,1,1
1,254,easy,present,simple,254,0.547,1,1,1
1,255,easy,present,simple,255,0.687,1,1,1
1,256,easy,present,simple,256,0.465,1,1,1
1,257,easy,present,simple,257,0.634,1,1,1
1,258,easy,present,simple,258,1.025,1,1,1
1,259,easy,present,simple,259,0.569,1,1,1
1,260,easy,present,simple,260,0.526,1,1,1
1,261,easy,present,simple,261,1.460,1,1,1
1,262,easy,present,simple,262,1.346,1,1,1
1,263,easy,present,simple,263,0.879,1,1,1
1,264,easy,present,simple,264,0.716,1,1,1
1,265,easy,present,simple,265,1.022,1,1,1
1,266,easy,present,simple,266,0.554,1,1,1
1,267,easy,present,simple,267,0.963,1,1,1
1,268,easy,present,simple,268,0.710,1,1,1
1,269,easy,present,simple,269,0.428,1,1,1
1,270,easy,present,simple,270,0.570,1,1,1
1,271,easy,present,simple,271,0.499,1,1,1
1,272,easy,present,simple,272,0.629,1,1,1
1,273,easy,present,simple,273,0.635,1,1,1
1,274,easy,present,simple,274,0.722,1,1,1
1,275,easy,present,simple,275,0.581,1,1,1
1,276,easy,present,simple,276,0.494,1,1,1
1,277,easy,present,simple,277,0.914,1,1,1
1,278,easy,present,simple,278,0.514,1,1,1
1,279,easy,present,simple,279,0.650,1,1,1
1,280,easy,present,simple,280,0.524,1,1,1
1,281,easy,present,simple,281,0.480,1,1,1
1,282,easy,present,simple,282,0.993,1,1,1
1,283,easy,present,simple,283,1.925,1,1,1
1,284,easy,present,simple,284,1.127,1,1,1
1,285,easy,present,simple,285,0.849,1,1,1
1,286,easy,present,simple,286,0.569,1,1,1
1,287,easy,present,simple,287,0.470,1,1,1
1,288,easy,present,simple,288,0.595,1,1,1
1,289,easy,present,simple,289,0.525,1,1,1
1,290,easy,present,simple,290,0.495,1,1,1
1,291,easy,present,simple,291,0.457,1,1,1
1,292,easy,present,simple,292,0.793,1,1,1
1,293,easy,present,simple,293,0.430,1,1,1
1,294,easy,present,simple,294,0.842,1,1,1
1,295,easy,present,simple,295,0.498,1,1,1
1,296,easy,present,simple,296,0.467,1,1,1
1,297,easy,present,simple,297,0.474,1,1,1
1,298,easy,present,simple,298,0.748,1,1,1
1,299,easy,present,simple,299,0.531,1,1,1
1,300,easy,present,simple,300,0.601,1,1,1
1,301,easy,present,simple,301,0.671,1,1,1
1,302,easy,present,simple,302,0.988,1,1,1
1,303,easy,present,simple,303,0.799,1,1,1
1,304,easy,present,simple,304,0.545,1,1,1
1,305,easy,present,simple,305,0.493,1,1,1
1,306,easy,present,simple,306,0.459,1,1,1
1,307,easy,present,simple,307,0.551,1,1,1
1,308,easy,present,simple,308,0.537,1,1,1
1,309,easy,present,simple,309,0.617,1,1,1
1,310,easy,present,simple,310,0.758,1,1,1
1,311,easy,present,simple,311,0.766,1,1,1
1,312,easy,present,simple,312,0.547,1,1,1
1,313,easy,present,simple,313,0.587,1,1,1
1,314,easy,present,simple,314,0.509,1,1,1
1,315,easy,present,simple,315,0.868,1,1,1
1,316,easy,present,simple,316,0.455,1,1,1
1,317,easy,present,simple,317,0.765,1,1,1
1,318,easy,present,simple,318,0.852,1,1,1
1,319,easy,present,simple,319,0.854,1,1,1
1,320,easy,present,simple,320,0.538,1,1,1
1,321,easy,present,simple,321,0.584,1,1,1
1,322,easy,present,simple,322,0.689,1,1,1
1,323,easy,present,simple,323,0.541,1,1,1
1,324,easy,present,simple,324,0.583,1,1,1
1,325,easy,present,simple,325,0.513,1,1,1
1,326,easy,present,simple,326,0.624,1,1,1
1,327,easy,present,simple,327,0.455,1,1,1
1,328,easy,present,simple,328,0.881,1,1,1
1,329,easy,present,simple,329,0.469,1,1,1
1,330,easy,present,simple,330,0.648,1,1,1
1,331,easy,present,simple,331,0.558,1,1,1
1,332,easy,present,simple,332,0.684,1,1,1
1,333,easy,present,simple,333,1.790,1,1,1
1,334,easy,present,simple,334,0.725,1,1,1
1,335,easy,present,simple,335,0.446,1,1,1
1,336,easy,present,simple,336,0.609,1,1,1
1,337,easy,present,simple,337,0.645,1,1,1
1,338,easy,present,simple,338,0.658,1,1,1
1,339,easy,present,simple,339,0.756,1,1,1
1,340,easy,present,simple,340,0.541,1,1,1
1,341,easy,present,simple,341,0.489,1,1,1
1,342,easy,present,simple,342,0.590,1,1,1
1,343,easy,present,simple,343,1.634,1,1,1
1,344,easy,present,simple,344,0.512,1,1,1
1,345,easy,present,simple,345,1.113,1,1,1
1,346,easy,present,simple,346,0.663,1,1,1
1,347,easy,present,simple,347,0.618,1,1,1
1,348,easy,present,simple,348,1.042,1,1,1
1,349,easy,present,simple,349,0.616,1,1,1
1,350,easy,present,simple,350,0.792,1,1,1
1,351,easy,present,simple,351,0.591,1,1,1
1,352,easy,present,simple,352,1.118,1,1,1
1,353,easy,present,simple,353,0.762,1,1,1
1,354,easy,present,simple,354,0.775,1,1,1
1,355,easy,present,simple,355,0.565,1,1,1
1,356,easy,present,simple,356,0.828,1,1,1
1,357,easy,present,simple,357,0.723,1,1,1
1,358,easy,present,simple,358,0.535,1,1,1
1,359,easy,present,simple,359,0.504,1,1,1
1,360,easy,present,simple,360,0.879,1,1,1
1,361,easy,present,simple,361,1.767,1,1,1
1,362,easy,present,simple,362,0.617,1,1,1
1,363,easy,present,simple,363,0.691,1,1,1
1,364,easy,present,simple,364,0.982,1,1,1
1,365,easy,present,simple,365,0.620,1,1,1
1,366,easy,present,simple,366,1.510,1,1,1
1,367,easy,present,simple,367,0.681,1,1,1
1,368,easy,present,simple,368,0.910,1,1,1
1,369,easy,present,simple,369,1.134,1,1,1
1,370,easy,present,simple,370,0.903,1,1,1
1,371,easy,present,simple,371,0.501,1,1,1
1,372,easy,present,simple,372,0.718,1,1,1
1,373,easy,present,simple,373,0.593,1,1,1
1,374,easy,present,simple,374,0.461,1,1,1
1,375,easy,present,simple,375,0.601,1,1,1
1,376,easy,present,simple,376,0.535,1,1,1
1,377,easy,present,simple,377,0.961,1,1,1
1,378,easy,present,simple,378,0.441,1,1,1
1,379,easy,present,simple,379,1.756,1,1,1
1,380,easy,present,simple,380,0.573,1,1,1
1,381,easy,present,simple,381,0.575,1,1,1
1,382,easy,present,simple,382,0.431,1,1,1
1,383,easy,present,simple,383,0.511,1,1,1
1,384,easy,present,simple,384,0.592,1,1,1
1,385,easy,present,simple,385,1.241,1,1,1
1,386,easy,present,simple,386,0.476,1,1,1
1,387,easy,present,simple,387,1.399,1,1,1
1,388,easy,present,simple,388,1.010,1,1,1
1,389,easy,present,simple,389,0.618,1,1,1
1,390,easy,present,simple,390,0.565,1,1,1
1,391,easy,present,simple,391,0.527,1,1,1
1,392,easy,present,simple,392,0.706,1,1,1
1,393,easy,present,simple,393,0.442,1,1,1
1,394,easy,present,simple,394,0.431,1,1,1
1,395,easy,present,simple,395,0.607,1,1,1
1,396,easy,present,simple,396,0.463,1,1,1
1,397,easy,present,simple,397,0.537,1,1,1
1,398,easy,present,simple,398,0.525,1,1,1
1,399,easy,present,simple,399,0.539,1,1,1
1,400,easy,present,simple,400,0.489,1,1,1
1,401,easy,present,simple,401,0.427,1,1,1
1,402,easy,present,simple,402,0.481,1,1,1
1,403,easy,present,simple,403,0.707,1,1,1
1,404,easy,present,simple,404,0.596,1,1,1
1,405,easy,present,simple,405,0.505,1,1,1
1,406,easy,present,simple,406,0.724,1,1,1
1,407,easy,present,simple,407,0.638,1,1,1
1,408,easy,present,simple,408,0.464,1,1,1
1,409,easy,present,simple,409,0.857,1,1,1
1,410,easy,present,simple,410,0.549,1,1,1
1,411,easy,present,simple,411,0.535,1,1,1
1,412,easy,present,simple,412,0.741,1,1,1
1,413,easy,present,simple,413,0.533,1,1,1
1,414,easy,present,simple,414,0.743,1,1,1
1,415,easy,present,simple,415,0.648,1,1,1
1,416,easy,present,simple,416,0.605,1,1,1
1,417,easy,present,simple,417,0.667,1,1,1
1,418,easy,present,simple,418,0.550,1,1,1
1,419,easy,present,simple,419,0.780,1,1,1
1,420,easy,present,simple,420,0.597,1,1,1
1,421,easy,present,simple,421,0.579,1,1,1
1,422,easy,present,simple,422,0.929,1,1,1
1,423,easy,present,simple,423,1.218,1,1,1
1,424,easy,present,simple,424,0.452,1,1,1
1,425,easy,present,simple,425,0.526,1,1,1
1,426,easy,present,simple,426,0.573,1,1,1
1,427,easy,present,simple,427,0.904,1,1,1
1,428,easy,present,simple,428,1.117,1,1,1
1,429,easy,present,simple,429,0.554,1,1,1
1,430,easy,present,simple,430,0.532,1,1,1
1,431,easy,present,simple,431,0.478,1,1,1
1,432,easy,present,simple,432,1.486,1,1,1
1,433,easy,present,simple,433,0.529,1,1,1
1,434,easy,present,simple,434,0.764,1,1,1
1,435,easy,present,simple,435,0.455,1,1,1
1,436,easy,present,simple,436,0.796,1,1,1
1,437,easy,present,simple,437,1.040,1,1,1
1,438,easy,present,simple,438,0.545,1,1,1
1,439,easy,present,simple,439,0.583,1,1,1
1,440,easy,present,simple,440,0.585,1,1,1
1,441,easy,present,simple,441,0.818,1,1,1
1,442,easy,present,simple,442,0.529,1,1,1
1,443,easy,present,simple,443,0.507,1,1,1
1,444,easy,present,simple,444,0.617,1,1,1
1,445,easy,present,simple,445,0.552,1,1,1
1,446,easy,present,simple,446,0.943,1,1,1
1,447,easy,present,simple,447,0.527,1,1,1
1,448,easy,present,simple,448,0.645,1,1,1
1,449,easy,present,simple,449,1.365,1,1,1
1,450,easy,present,simple,450,0.715,1,1,1
1,451,easy,present,simple,451,1.001,1,1,1
1,452,easy,present,simple,452,1.336,1,1,1
1,453,easy,present,simple,453,0.820,1,1,1
1,454,easy,present,simple,454,0.771,1,1,1
1,455,easy,present,simple,455,0.616,1,1,1
1,456,easy,present,simple,456,0.462,1,1,1
1,457,easy,present,simple,457,0.555,1,1,1
1,458,easy,present,simple,458,0.498,1,1,1
1,459,easy,present,simple,459,0.604,1,1,1
1,460,easy,present,simple,460,0.493,1,1,1
1,461,easy,present,simple,461,0.700,1,1,1
1,462,easy,present,simple,462,0.588,1,1,1
1,463,easy,present,simple,463,1.080,1,1,1
1,464,easy,present,simple,464,0.662,1,1,1
1,465,easy,present,simple,465,0.543,1,1,1
1,466,easy,present,simple,466,0.694,1,1,1
1,467,easy,present,simple,467,1.087,1,1,1
1,468,easy,present,simple,468,0.599,1,1,1
1,469,easy,present,simple,469,0.669,1,1,1
1,470,easy,present,simple,470,0.542,1,1,1
1,471,easy,present,simple,471,0.620,1,1,1
1,472,easy,present,simple,472,0.593,1,1,1
1,473,easy,present,simple,473,0.534,1,1,1
1,474,easy,present,simple,474,0.643,1,1,1
1,475,easy,present,simple,475,0.559,1,1,1
1,476,easy,present,simple,476,0.584,1,1,1
1,477,easy,present,simple,477,0.655,1,1,1
1,478,easy,present,simple,478,0.821,1,1,1
1,479,easy,present,simple,479,0.568,1,1,1
1,480,easy,present,simple,480,1.212,1,1,1
1,481,easy,present,simple,481,0.995,1,1,1
1,482,easy,present,simple,482,0.451,1,1,1
1,483,easy,present,simple,483,0.540,1,1,1
1,484,easy,present,simple,484,0.614,1,1,1
1,485,easy,present,simple,485,0.475,1,1,1
1,486,easy,present,simple,486,0.572,1,1,1
1,487,easy,present,simple,487,0.809,1,1,1
1,488,easy,present,simple,488,0.754,1,1,1
1,489,easy,present,simple,489,0.715,1,1,1
1,490,easy,present,simple,490,0.784,1,1,1
1,491,easy,present,simple,491,0.517,1,1,1
1,492,easy,present,simple,492,0.567,1,1,1
1,493,easy,present,simple,493,0.754,1,1,1
1,494,easy,present,simple,494,1.031,1,1,1
1,495,easy,present,simple,495,0.661,1,1,1
1,496,easy,present,simple,496,0.547,1,1,1
1,497,easy,present,simple,497,0.441,1,1,1
1,498,easy,present,simple,498,0.784,1,1,1
1,499,easy,present,simple,499,0.423,1,1,1
1,500,easy,present,simple,500,0.582,1,1,1
1,501,easy,present,simple,501,0.659,1,1,1
1,502,easy,present,simple,502,1.199,1,1,1
1,503,easy,present,simple,503,0.475,1,1,1
1,504,easy,present,simple,504,0.599,1,1,1
1,505,easy,present,simple,505,0.437,1,1,1
1,506,easy,present,simple,506,0.566,1,1,1
1,507,easy,present,simple,507,0.714,1,1,1
1,508,easy,present,simple,508,0.545,1,1,1
1,509,easy,present,simple,509,0.517,1,1,1
1,510,easy,present,simple,510,0.485,1,1,1
1,511,easy,present,simple,511,0.685,1,1,1
1,512,easy,present,simple,512,0.768,1,1,1
1,513,easy,present,simple,513,0.748,1,1,1
1,514,easy,present,simple,514,1.445,1,1,1
1,515,easy,present,simple,515,0.413,1,1,1
1,516,easy,present,simple,516,0.728,1,1,1
1,517,easy,present,simple,517,0.697,1,1,1
1,518,easy,present,simple,518,0.685,1,1,1
1,519,easy,present,simple,519,0.432,1,1,1
1,520,easy,present,simple,520,0.767,1,1,1
1,521,easy,present,simple,521,0.903,1,1,1
1,522,easy,present,simple,522,0.644,1,1,1
1,523,easy,present,simple,523,0.567,1,1,1
1,524,easy,present,simple,524,0.867,1,1,1
1,525,easy,present,simple,525,0.475,1,1,1
1,526,easy,present,simple,526,0.610,1,1,1
1,527,easy,present,simple,527,0.651,1,1,1
1,528,easy,present,simple,528,0.769,1,1,1
1,529,easy,present,simple,529,0.473,1,1,1
1,530,easy,present,simple,530,0.529,1,1,1
1,531,easy,present,simple,531,0.599,1,1,1
1,532,easy,present,simple,532,0.714,1,1,1
1,533,easy,present,simple,533,1.059,1,1,1
1,534,easy,present,simple,534,0.710,1,1,1
1,535,easy,present,simple,535,0.494,1,1,1
1,536,easy,present,simple,536,1.013,1,1,1
1,537,easy,present,simple,537,0.640,1,1,1
1,538,easy,present,simple,538,1.205,1,1,1
1,539,easy,present,simple,539,0.661,1,1,1
1,540,easy,present,simple,540,1.209,1,1,1
1,541,easy,present,simple,541,0.929,1,1,1
1,542,easy,present,simple,542,1.186,1,1,1
1,543,easy,present,simple,543,0.445,1,1,1
1,544,easy,present,simple,544,0.509,1,1,1
1,545,easy,present,simple,545,0.587,1,1,1
1,546,easy,present,simple,546,1.514,1,1,1
1,547,easy,present,simple,547,0.555,1,1,1
1,548,easy,present,simple,548,0.501,1,1,1
1,549,easy,present,simple,549,1.055,1,1,1
1,550,easy,present,simple,550,0.612,1,1,1
1,551,easy,present,simple,551,1.132,1,1,1
1,552,easy,present,simple,552,0.505,1,1,1
1,553,easy,present,simple,553,0.740,1,1,1
1,554,easy,present,simple,554,0.611,1,1,1
1,555,easy,present,simple,555,0.468,1,1,1
1,556,easy,present,simple,556,0.766,1,1,1
1,557,easy,present,simple,557,0.533,1,1,1
1,558,easy,present,simple,558,0.449,1,1,1
1,559,easy,present,simple,559,0.458,1,1,1
1,560,easy,present,simple,560,0.462,1,1,1
1,561,easy,present,simple,561,1.132,1,1,1
1,562,easy,present,simple,562,0.807,1,1,1
1,563,easy,present,simple,563,1.093,1,1,1
1,564,easy,present,simple,564,0.749,1,1,1
1,565,easy,present,simple,565,0.660,1,1,1
1,566,easy,present,simple,566,0.550,1,1,1
1,567,easy,present,simple,567,0.576,1,1,1
1,568,easy,present,simple,568,0.626,1,1,1
1,569,easy,present,simple,569,0.582,1,1,1
1,570,easy,present,simple,570,0.508,1,1,1
1,571,easy,present,simple,571,0.564,1,1,1
1,572,easy,present,simple,572,0.754,1,1,1
1,573,easy,present,simple,573,0.465,1,1,1
1,574,easy,present,simple,574,0.703,1,1,1
1,575,easy,present,simple,575,0.629,1,1,1
1,576,easy,present,simple,576,0.549,1,1,1
1,577,easy,present,simple,577,0.532,1,1,1
1,578,easy,present,simple,578,0.649,1,1,1
1,579,easy,present,simple,579,0.580,1,1,1
1,580,easy,present,simple,580,0.615,1,1,1
1,581,easy,present,simple,581,0.566,1,1,1
1,582,easy,present,simple,582,0.493,1,1,1
1,583,easy,present,simple,583,0.476,1,1,1
1,584,easy,present,simple,584,0.573,1,1,1
1,585,easy,present,simple,585,0.694,1,1,1
1,586,easy,present,simple,586,0.736,1,1,1
1,587,easy,present,simple,587,0.592,1,1,1
1,588,easy,present,simple,588,0.573,1,1,1
1,589,easy,present,simple,589,0.792,1,1,1
1,590,easy,present,simple,590,0.724,1,1,1
1,591,easy,present,simple,591,0.905,1,1,1
1,592,easy,present,simple,592,1.065,1,1,1
1,593,easy,present,simple,593,0.839,1,1,1
1,594,easy,present,simple,594,0.765,1,1,1
1,595,easy,present,simple,595,0.566,1,1,1
1,596,easy,present,simple,596,0.496,1,1,1
1,597,easy,present,simple,597,0.461,1,1,1
1,598,easy,present,simple,598,0.533,1,1,1
1,599,easy,present,simple,599,0.608,1,1,1
1,600,easy,present,simple,600,0.652,1,1,1
1,601,easy,present,simple,601,0.850,1,1,1
1,602,easy,present,simple,602,1.741,1,1,1
1,603,easy,present,simple,603,0.484,1,1,1
1,604,easy,present,simple,604,0.484,1,1,1
1,605,easy,present,simple,605,0.693,1,1,1
1,606,easy,present,simple,606,0.812,1,1,1
1,607,easy,present,simple,607,0.963,1,1,1
1,608,easy,present,simple,608,1.292,1,1,1
1,609,easy,present,simple,609,0.592,1,1,1
1,610,easy,present,simple,610,0.587,1,1,1
1,611,easy,present,simple,611,0.498,1,1,1
1,612,easy,present,simple,612,0.755,1,1,1
1,613,easy,present,simple,613,0.736,1,1,1
1,614,easy,present,simple,614,0.994,1,1,1
1,615,easy,present,simple,615,0.479,1,1,1
1,616,easy,present,simple,616,0.636,1,1,1
1,617,easy,present,simple,617,0.682,1,1,1
1,618,easy,present,simple,618,0.535,1,1,1
1,619,easy,present,simple,619,0.504,1,1,1
1,620,easy,present,simple,620,0.988,1,1,1
1,621,easy,present,simple,621,0.456,1,1,1
1,622,easy,present,simple,622,0.625,1,1,1
1,623,easy,present,simple,623,0.482,1,1,1
1,624,easy,present,simple,624,0.618,1,1,1
1,625,easy,present,simple,625,0.604,1,1,1
1,626,easy,present,simple,626,0.980,1,1,1
1,627,easy,present,simple,627,0.481,1,1,1
1,628,easy,present,simple,628,0.542,1,1,1
1,629,easy,present,simple,629,0.596,1,1,1
1,630,easy,present,simple,630,0.594,1,1,1
1,631,easy,present,simple,631,0.749,1,1,1
1,632,easy,present,simple,632,0.573,1,1,1
1,633,easy,present,simple,633,0.785,1,1,1
1,634,easy,present,simple,634,0.721,1,1,1
1,635,easy,present,simple,635,0.594,1,1,1
1,636,easy,present,simple,636,0.606,1,1,1
1,637,easy,present,simple,637,0.706,1,1,1
1,638,easy,present,simple,638,0.463,1,1,1
1,639,easy,present,simple,639,0.911,1,1,1
1,640,easy,present,simple,640,0.733,1,1,1
1,641,easy,present,simple,641,0.797,1,1,1
1,642,easy,present,simple,642,0.659,1,1,1
1,643,easy,present,simple,643,0.485,1,1,1
1,644,easy,present,simple,644,0.599,1,1,1
1,645,easy,present,simple,645,0.599,1,1,1
1,646,easy,present,simple,646,0.560,1,1,1
1,647,easy,present,simple,647,0.442,1,1,1
1,648,easy,present,simple,648,0.808,1,1,1
1,649,easy,present,simple,649,0.482,1,1,1
1,650,easy,present,simple,650,0.701,1,1,1
1,651,easy,present,simple,651,0.772,1,1,1
1,652,easy,present,simple,652,0.720,1,1,1
1,653,easy,present,simple,653,1.766,1,1,1
1,654,easy,present,simple,654,0.477,1,1,1
1,655,easy,present,simple,655,1.000,1,1,1
1,656,easy,present,simple,656,0.444,1,1,1
1,657,easy,present,simple,657,0.656,1,1,1
1,658,easy,present,simple,658,0.596,1,1,1
1,659,easy,present,simple,659,0.651,1,1,1
1,660,easy,present,simple,660,0.579,1,1,1
1,661,easy,present,simple,661,0.511,1,1,1
1,662,easy,present,simple,662,0.434,1,1,1
1,663,easy,present,simple,663,0.649,1,1,1
1,664,easy,present,simple,664,0.955,1,1,1
1,665,easy,present,simple,665,0.581,1,1,1
1,666,easy,present,simple,666,0.521,1,1,1
1,667,easy,present,simple,667,0.469,1,1,1
1,668,easy,present,simple,668,0.471,1,1,1
1,669,easy,present,simple,669,0.521,1,1,1
1,670,easy,present,simple,670,0.476,1,1,1
1,671,easy,present,simple,671,0.536,1,1,1
1,672,easy,present,simple,672,0.462,1,1,1
1,673,easy,present,simple,673,0.461,1,1,1
1,674,easy,present,simple,674,0.977,1,1,1
1,675,easy,present,simple,675,0.502,1,1,1
1,676,easy,present,simple,676,0.670,1,1,1
1,677,easy,present,simple,677,0.847,1,1,1
1,678,easy,present,simple,678,0.615,1,1,1
1,679,easy,present,simple,679,0.497,1,1,1
1,680,easy,present,simple,680,0.519,1,1,1
1,681,easy,present,simple,681,0.609,1,1,1
1,682,easy,present,simple,682,0.650,1,1,1
1,683,easy,present,simple,683,0.573,1,1,1
1,684,easy,present,simple,684,0.859,1,1,1
1,685,easy,present,simple,685,0.821,1,1,1
1,686,easy,present,simple,686,1.234,1,1,1
1,687,easy,present,simple,687,0.444,1,1,1
1,688,easy,present,simple,688,1.084,1,1,1
1,689,easy,present,simple,689,0.591,1,1,1
1,690,easy,present,simple,690,1.030,1,1,1
1,691,easy,present,simple,691,0.761,1,1,1
1,692,easy,present,simple,692,0.828,1,1,1
1,693,easy,present,simple,693,0.577,1,1,1
1,694,easy,present,simple,694,0.644,1,1,1
1,695,easy,present,simple,695,0.582,1,1,1
1,696,easy,present,simple,696,0.576,1,1,1
1,697,easy,present,simple,697,0.537,1,1,1
1,698,easy,present,simple,698,0.639,1,1,1
1,699,easy,present,simple,699,0.760,1,1,1
1,700,easy,present,simple,700,0.541,1,1,1
1,701,easy,present,simple,701,0.654,1,1,1
1,702,easy,present,simple,702,0.481,1,1,1
1,703,easy,present,simple,703,0.504,1,1,1
1,704,easy,present,simple,704,0.451,1,1,1
1,705,easy,present,simple,705,0.415,1,1,1
1,706,easy,present,simple,706,0.510,1,1,1
1,707,easy,present,simple,707,0.704,1,1,1
1,708,easy,present,simple,708,0.469,1,1,1
1,709,easy,present,simple,709,1.043,1,1,1
1,710,easy,present,simple,710,0.787,1,1,1
1,711,easy,present,simple,711,0.643,1,1,1
1,712,easy,present,simple,712,0.552,1,1,1
1,713,easy,present,simple,713,0.669,1,1,1
1,714,easy,present,simple,714,1.256,1,1,1
1,715,easy,present,simple,715,0.651,1,1,1
1,716,easy,present,simple,716,0.542,1,1,1
1,717,easy,present,simple,717,1.027,1,1,1
1,718,easy,present,simple,718,0.580,1,1,1
1,719,easy,present,simple,719,0.409,1,1,1
1,720,easy,present,simple,720,0.534,1,1,1
1,721,easy,present,simple,721,0.563,1,1,1
1,722,easy,present,simple,722,0.985,1,1,1
1,723,easy,present,simple,723,0.615,1,1,1
1,724,easy,present,simple,724,0.614,1,1,1
1,725,easy,present,simple,725,0.566,1,1,1
1,726,easy,present,simple,726,1.037,1,1,1
1,727,easy,present,simple,727,1.391,1,1,1
1,728,easy,present,simple,728,0.581,1,1,1
1,729,easy,present,simple,729,0.868,1,1,1
1,730,easy,present,simple,730,0.750,1,1,1
1,731,easy,present,simple,731,0.534,1,1,1
1,732,easy,present,simple,732,0.523,1,1,1
1,733,easy,present,simple,733,0.505,1,1,1
1,734,easy,present,simple,734,1.204,1,1,1
1,735,easy,present,simple,735,0.553,1,1,1
1,736,easy,present,simple,736,0.619,1,1,1
1,737,easy,present,simple,737,0.636,1,1,1
1,738,easy,present,simple,738,0.853,1,1,1
1,739,easy,present,simple,739,0.951,1,1,1
1,740,easy,present,simple,740,0.495,1,1,1
1,741,easy,present,simple,741,0.606,1,1,1
1,742,easy,present,simple,742,0.950,1,1,1
1,743,easy,present,simple,743,0.907,1,1,1
1,744,easy,present,simple,744,0.478,1,1,1
1,745,easy,present,simple,745,0.495,1,1,1
1,746,easy,present,simple,746,0.553,1,1,1
1,747,easy,present,simple,747,0.469,1,1,1
1,748,easy,present,simple,748,0.604,1,1,1
1,749,easy,present,simple,749,0.483,1,1,1
1,750,easy,present,simple,750,0.680,1,1,1
1,751,easy,present,simple,751,0.535,1,1,1
1,752,easy,present,simple,752,0.694,1,1,1
1,753,easy,present,simple,753,0.483,1,1,1
1,754,easy,present,simple,754,1.265,1,1,1
1,755,easy,present,simple,755,0.588,1,1,1
1,756,easy,present,simple,756,0.535,1,1,1
1,757,easy,present,simple,757,0.534,1,1,1
1,758,easy,present,simple,758,0.632,1,1,1
1,759,easy,present,simple,759,0.446,1,1,1
1,760,easy,present,simple,760,0.724,1,1,1
1,761,easy,present,simple,761,0.599,1,1,1
1,762,easy,present,simple,762,0.585,1,1,1
1,763,easy,present,simple,763,0.894,1,1,1
1,764,easy,present,simple,764,0.778,1,1,1
1,765,easy,present,simple,765,1.566,1,1,1
1,766,easy,present,simple,766,0.572,1,1,1
1,767,easy,present,simple,767,1.092,1,1,1
1,768,easy,present,simple,768,0.843,1,1,1
1,769,easy,present,simple,769,0.577,1,1,1
1,770,easy,present,simple,770,0.714,1,1,1
1,771,easy,present,simple,771,0.549,1,1,1
1,772,easy,present,simple,772,1.022,1,1,1
1,773,easy,present,simple,773,0.483,1,1,1
1,774,easy,present,simple,774,0.522,1,1,1
1,775,easy,present,simple,775,0.510,1,1,1
1,776,easy,present,simple,776,0.591,1,1,1
1,777,easy,present,simple,777,0.813,1,1,1
1,778,easy,present,simple,778,0.655,1,1,1
1,779,easy,present,simple,779,0.631,1,1,1
1,780,easy,present,simple,780,0.401,1,1,1
1,781,easy,present,simple,781,0.603,1,1,1
1,782,easy,present,simple,782,0.464,1,1,1
1,783,easy,present,simple,783,0.517,1,1,1
1,784,easy,present,simple,784,1.268,1,1,1
1,785,easy,present,simple,785,0.521,1,1,1
1,786,easy,present,simple,786,0.982,1,1,1
1,787,easy,present,simple,787,0.886,1,1,1
1,788,easy,present,simple,788,0.502,1,1,1
1,789,easy,present,simple,789,0.701,1,1,1
1,790,easy,present,simple,790,0.482,1,1,1
1,791,easy,present,simple,791,0.800,1,1,1
1,792,easy,present,simple,792,0.721,1,1,1
1,793,easy,present,simple,793,0.897,1,1,1
1,794,easy,present,simple,794,0.628,1,1,1
1,795,easy,present,simple,795,1.165,1,1,1
1,796,easy,present,simple,796,0.451,1,1,1
1,797,easy,present,simple,797,0.555,1,1,1
1,798,easy,present,simple,798,0.780,1,1,1
1,799,easy,present,simple,799,0.602,1,1,1
1,800,easy,present,simple,800,0.507,1,1,1
1,801,easy,present,simple,801,0.481,1,1,1
1,802,easy,present,simple,802,0.907,1,1,1
1,803,easy,present,simple,803,0.627,1,1,1
1,804,easy,present,simple,804,1.044,1,1,1
1,805,easy,present,simple,805,0.805,1,1,1
1,806,easy,present,simple,806,0.598,1,1,1
1,807,easy,present,simple,807,0.584,1,1,1
1,808,easy,present,simple,808,0.648,1,1,1
1,809,easy,present,simple,809,1.062,1,1,1
1,810,easy,present,simple,810,0.806,1,1,1
1,811,easy,present,simple,811,0.417,1,1,1
1,812,easy,present,simple,812,0.768,1,1,1
1,813,easy,present,simple,813,1.185,1,1,1
1,814,easy,present,simple,814,0.781,1,1,1
1,815,easy,present,simple,815,0.508,1,1,1
1,816,easy,present,simple,816,0.631,1,1,1
1,817,easy,present,simple,817,0.494,1,1,1
1,818,easy,present,simple,818,0.577,1,1,1
1,819,easy,present,simple,819,1.306,1,1,1
1,820,easy,present,simple,820,1.205,1,1,1
1,821,easy,present,simple,821,0.550,1,1,1
1,822,easy,present,simple,822,0.566,1,1,1
1,823,easy,present,simple,823,0.696,1,1,1
1,824,easy,present,simple,824,0.496,1,1,1
1,825,easy,present,simple,825,0.538,1,1,1
1,826,easy,present,simple,826,1.019,1,1,1
1,827,easy,present,simple,827,0.638,1,1,1
1,828,easy,present,simple,828,1.100,1,1,1
1,829,easy,present,simple,829,0.514,1,1,1
1,830,easy,present,simple,830,0.656,1,1,1
1,831,easy,present,simple,831,0.563,1,1,1
1,832,easy,present,simple,832,0.559,1,1,1
1,833,easy,present,simple,833,0.614,1,1,1
1,834,easy,present,simple,834,0.605,1,1,1
1,835,easy,present,simple,835,0.579,1,1,1
1,836,easy,present,simple,836,1.164,1,1,1
1,837,easy,present,simple,837,0.804,1,1,1
1,838,easy,present,simple,838,0.798,1,1,1
1,839,easy,present,simple,839,0.547,1,1,1
1,840,easy,present,simple,840,0.683,1,1,1
1,841,easy,present,simple,841,0.854,1,1,1
1,842,easy,present,simple,842,0.875,1,1,1
1,843,easy,present,simple,843,0.573,1,1,1
1,844,easy,present,simple,844,0.844,1,1,1
1,845,easy,present,simple,845,0.804,1,1,1
1,846,easy,present,simple,846,0.490,1,1,1
1,847,easy,present,simple,847,1.003,1,1,1
1,848,easy,present,simple,848,0.611,1,1,1
1,849,easy,present,simple,849,0.631,1,1,1
1,850,easy,present,simple,850,0.612,1,1,1
1,851,easy,present,simple,851,0.677,1,1,1
1,852,easy,present,simple,852,0.713,1,1,1
1,853,easy,present,simple,853,0.638,1,1,1
1,854,easy,present,simple,854,1.001,1,1,1
1,855,easy,present,simple,855,0.711,1,1,1
1,856,easy,present,simple,856,0.590,1,1,1
1,857,easy,present,simple,857,0.603,1,1,1
1,858,easy,present,simple,858,0.896,1,1,1
1,859,easy,present,simple,859,0.570,1,1,1
1,860,easy,present,simple,860,0.525,1,1,1
1,861,easy,present,simple,861,0.458,1,1,1
1,862,easy,present,simple,862,1.025,1,1,1
1,863,easy,present,simple,863,1.184,1,1,1
1,864,easy,present,simple,864,0.490,1,1,1
1,865,easy,present,simple,865,0.567,1,1,1
1,866,easy,present,simple,866,0.505,1,1,1
1,867,easy,present,simple,867,0.481,1,1,1
1,868,easy,present,simple,868,1.097,1,1,1
1,869,easy,present,simple,869,0.459,1,1,1
1,870,easy,present,simple,870,0.479,1,1,1
1,871,easy,present,simple,871,0.990,1,1,1
1,872,easy,present,simple,872,0.677,1,1,1
1,873,easy,present,simple,873,0.583,1,1,1
1,874,easy,present,simple,874,0.565,1,1,1
1,875,easy,present,simple,875,0.828,1,1,1
1,876,easy,present,simple,876,0.560,1,1,1
1,877,easy,present,simple,877,0.736,1,1,1
1,878,easy,present,simple,878,0.649,1,1,1
1,879,easy,present,simple,879,0.633,1,1,1
1,880,easy,present,simple,880,1.101,1,1,1
1,881,easy,present,simple,881,0.665,1,1,1
1,882,easy,present,simple,882,0.920,1,1,1
1,883,easy,present,simple,883,0.793,1,1,1
1,884,easy,present,simple,884,0.450,1,1,1
1,885,easy,present,simple,885,0.848,1,1,1
1,886,easy,present,simple,886,0.524,1,1,1
1,887,easy,present,simple,887,1.112,1,1,1
1,888,easy,present,simple,888,0.453,1,1,1
1,889,easy,present,simple,889,0.566,1,1,1
1,890,easy,present,simple,890,0.479,1,1,1
1,891,easy,present,simple,891,0.629,1,1,1
1,892,easy,present,simple,892,0.915,1,1,1
1,893,easy,present,simple,893,0.551,1,1,1
1,894,easy,present,simple,894,0.496,1,1,1
1,895,easy,present,simple,895,0.561,1,1,1
1,896,easy,present,simple,896,0.905,1,1,1
1,897,easy,present,simple,897,0.494,1,1,1
1,898,easy,present,simple,898,0.526,1,1,1
1,899,easy,present,simple,899,0.463,1,1,1
1,900,easy,present,simple,900,0.777,1,1,1
1,901,easy,present,simple,901,0.591,1,1,1
1,902,easy,present,simple,902,0.556,1,1,1
1,903,easy,present,simple,903,0.790,1,1,1
1,904,easy,present,simple,904,0.567,1,1,1
1,905,easy,present,simple,905,0.800,1,1,1
1,906,easy,present,simple,906,0.900,1,1,1
1,907,easy,present,simple,907,0.522,1,1,1
1,908,easy,present,simple,908,0.500,1,1,1
1,909,easy,present,simple,909,0.548,1,1,1
1,910,easy,present,simple,910,0.506,1,1,1
1,911,easy,present,simple,911,0.574,1,1,1
1,912,easy,present,simple,912,0.628,1,1,1
1,913,easy,present,simple,913,0.651,1,1,1
1,914,easy,present,simple,914,0.975,1,1,1
1,915,easy,present,simple,915,1.064,1,1,1
1,916,easy,present,simple,916,0.521,1,1,1
1,917,easy,present,simple,917,0.714,1,1,1
1,918,easy,present,simple,918,0.484,1,1,1
1,919,easy,present,simple,919,0.617,1,1,1
1,920,easy,present,simple,920,0.562,1,1,1
1,921,easy,present,simple,921,0.557,1,1,1
1,922,easy,present,simple,922,0.633,1,1,1
1,923,easy,present,simple,923,0.800,1,1,1
1,924,easy,present,simple,924,0.461,1,1,1
1,925,easy,present,simple,925,1.034,1,1,1
1,926,easy,present,simple,926,0.800,1,1,1
1,927,easy,present,simple,927,0.508,1,1,1
1,928,easy,present,simple,928,1.327,1,1,1
1,929,easy,present,simple,929,0.644,1,1,1
1,930,easy,present,simple,930,0.514,1,1,1
1,931,easy,present,simple,931,0.657,1,1,1
1,932,easy,present,simple,932,0.548,1,1,1
1,933,easy,present,simple,933,0.553,1,1,1
1,934,easy,present,simple,934,0.694,1,1,1
1,935,easy,present,simple,935,1.197,1,1,1
1,936,easy,present,simple,936,0.888,1,1,1
1,937,easy,present,simple,937,0.791,1,1,1
1,938,easy,present,simple,938,0.673,1,1,1
1,939,easy,present,simple,939,1.202,1,1,1
1,940,easy,present,simple,940,0.638,1,1,1
1,941,easy,present,simple,941,1.016,1,1,1
1,942,easy,present,simple,942,0.931,1,1,1
1,943,easy,present,simple,943,0.522,1,1,1
1,944,easy,present,simple,944,0.842,1,1,1
1,945,easy,present,simple,945,0.426,1,1,1
1,946,easy,present,simple,946,0.561,1,1,1
1,947,easy,present,simple,947,0.525,1,1,1
1,948,easy,present,simple,948,0.640,1,1,1
1,949,easy,present,simple,949,0.806,1,1,1
1,950,easy,present,simple,950,0.477,1,1,1
1,951,easy,present,simple,951,0.649,1,1,1
1,952,easy,present,simple,952,1.317,1,1,1
1,953,easy,present,simple,953,0.530,1,1,1
1,954,easy,present,simple,954,0.750,1,1,1
1,955,easy,present,simple,955,0.691,1,1,1
1,956,easy,present,simple,956,0.427,1,1,1
1,957,easy,present,simple,957,0.628,1,1,1
1,958,easy,present,simple,958,0.779,1,1,1
1,959,easy,present,simple,959,0.452,1,1,1
1,960,easy,present,simple,960,1.031,1,1,1
1,961,easy,present,simple,961,0.650,1,1,1
1,962,easy,present,simple,962,0.444,1,1,1
1,963,easy,present,simple,963,0.522,1,1,1
1,964,easy,present,simple,964,1.548,1,1,1
1,965,easy,present,simple,965,0.690,1,1,1
1,966,easy,present,simple,966,0.480,1,1,1
1,967,easy,present,simple,967,0.546,1,1,1
1,968,easy,present,simple,968,0.619,1,1,1
1,969,easy,present,simple,969,0.439,1,1,1
1,970,easy,present,simple,970,0.599,1,1,1
1,971,easy,present,simple,971,0.633,1,1,1
1,972,easy,present,simple,972,0.535,1,1,1
1,973,easy,present,simple,973,0.687,1,1,1
1,974,easy,present,simple,974,0.823,1,1,1
1,975,easy,present,simple,975,0.525,1,1,1
1,976,easy,present,simple,976,0.707,1,1,1
1,977,easy,present,simple,977,0.724,1,1,1
1,978,easy,present,simple,978,1.441,1,1,1
1,979,easy,present,simple,979,0.855,1,1,1
1,980,easy,present,simple,980,0.963,1,1,1
1,981,easy,present,simple,981,0.636,1,1,1
1,982,easy,present,simple,982,0.460,0,1,0
1,983,easy,present,simple,983,0.610,0,1,0
1,984,easy,present,simple,984,0.766,0,1,0
1,985,easy,present,simple,985,0.586,0,1,0
1,986,easy,present,simple,986,0.590,0,1,0
1,987,easy,present,simple,987,0.438,0,1,0
1,988,easy,present,simple,988,0.578,0,1,0
1,989,easy,present,simple,989,0.812,0,1,0
1,990,easy,present,simple,990,0.433,0,1,0
1,991,easy,present,simple,991,0.602,0,1,0
1,992,easy,present,simple,992,0.418,0,1,0
1,993,easy,present,simple,993,0.654,0,1,0
1,994,easy,present,simple,994,0.550,0,1,0
1,995,easy,present,simple,995,0.569,0,1,0
1,996,easy,present,simple,996,0.811,0,1,0
1,997,easy,present,simple,997,0.794,0,1,0
1,998,easy,present,simple,998,0.710,0,1,0
1,999,easy,present,simple,999,0.513,0,1,0
1,1000,easy,present,simple,1000,0.862,0,1,0
1,1001,easy,present,simple,1001,0.502,0,1,0
1,1002,easy,present,simple,1002,0.964,0,1,0
1,1003,easy,present,simple,1003,0.501,0,1,0
1,1004,easy,present,simple,1004,0.446,0,1,0
1,1005,easy,present,simple,1005,0.638,0,1,0
1,1006,easy,present,simple,1006,0.507,0,1,0
1,1007,easy,present,simple,1007,1.346,0,1,0
1,1008,easy,present,simple,1008,0.623,0,1,0
1,1009,easy,present,simple,1009,0.527,0,1,0
1,1010,easy,present,simple,1010,0.589,0,1,0
1,1011,easy,present,simple,1011,0.678,0,1,0
1,1012,easy,present,simple,1012,0.629,0,1,0
1,1013,easy,present,simple,1013,0.741,0,1,0
1,1014,easy,present,simple,1014,0.533,0,1,0
1,1015,easy,present,simple,1015,0.488,0,1,0
1,1016,easy,present,simple,1016,0.864,0,1,0
1,1017,easy,present,simple,1017,0.489,0,1,0
1,1018,easy,present,simple,1018,0.582,0,1,0
1,1019,easy,present,simple,1019,0.454,0,1,0
1,1020,easy,present,simple,1020,0.636,0,1,0
1,1021,easy,present,simple,1021,0.561,0,1,0
1,1022,easy,present,complex,1,1.022,1,1,1
1,1023,easy,present,complex,2,0.651,1,1,1
1,1024,easy,present,complex,3,0.632,1,1,1
1,1025,easy,present,complex,4,1.455,1,1,1
1,1026,easy,present,complex,5,0.717,1,1,1
1,1027,easy,present,complex,6,1.007,1,1,1
1,1028,easy,present,complex,7,0.574,1,1,1
1,1029,easy,present,complex,8,0.719,1,1,1
1,1030,easy,present,complex,9,0.996,1,1,1
1,1031,easy,present,complex,10,0.839,1,1,1
1,1032,easy,present,complex,11,0.661,1,1,1
1,1033,easy,present,complex,12,0.772,1,1,1
1,1034,easy,present,complex,13,0.760,1,1,1
1,1035,easy,present,complex,14,0.855,1,1,1
1,1036,easy,present,complex,15,0.923,1,1,1
1,1037,easy,present,complex,16,1.130,1,1,1
1,1038,easy,present,complex,17,0.817,1,1,1
1,1039,easy,present,complex,18,0.774,1,1,1
1,1040,easy,present,complex,19,0.674,1,1,1
1,1041,easy,present,complex,20,1.068,1,1,1
1,1042,easy,present,complex,21,0.965,1,1,1
1,1043,easy,present,complex,22,0.779,1,1,1
1,1044,easy,present,complex,23,0.826,1,1,1
1,1045,easy,present,complex,24,0.924,1,1,1
1,1046,easy,present,complex,25,0.683,1,1,1
1,1047,easy,present,complex,26,0.622,1,1,1
1,1048,easy,present,complex,27,0.735,1,1,1
1,1049,easy,present,complex,28,0.871,1,1,1
1,1050,easy,present,complex,29,0.814,1,1,1
1,1051,easy,present,complex,30,0.941,1,1,1
1,1052,easy,present,complex,31,1.095,1,1,1
1,1053,easy,present,complex,32,0.813,1,1,1
1,1054,easy,present,complex,33,0.672,1,1,1
1,1055,easy,present,complex,34,1.148,1,1,1
1,1056,easy,present,complex,35,0.863,1,1,1
1,1057,easy,present,complex,36,0.990,1,1,1
1,1058,easy,present,complex,37,0.951,1,1,1
1,1059,easy,present,complex,38,0.734,1,1,1
1,1060,easy,present,complex,39,0.956,1,1,1
1,1061,easy,present,complex,40,0.759,1,1,1
1,1062,easy,present,complex,41,0.772,1,1,1
1,1063,easy,present,complex,42,0.706,1,1,1
1,1064,easy,present,complex,43,0.750,1,1,1
1,1065,easy,present,complex,44,1.618,1,1,1
1,1066,easy,present,complex,45,0.734,1,1,1
1,1067,easy,present,complex,46,0.711,1,1,1
1,1068,easy,present,complex,47,0.870,1,1,1
1,1069,easy,present,complex,48,0.719,1,1,1
1,1070,easy,present,complex,49,0.805,1,1,1
1,1071,easy,present,complex,50,1.118,1,1,1
1,1072,easy,present,complex,51,0.708,1,1,1
1,1073,easy,present,complex,52,0.786,1,1,1
1,1074,easy,present,complex,53,0.882,1,1,1
1,1075,easy,present,complex,54,0.842,1,1,1
1,1076,easy,present,complex,55,0.931,1,1,1
1,1077,easy,present,complex,56,0.986,1,1,1
1,1078,easy,present,complex,57,0.779,1,1,1
1,1079,easy,present,complex,58,0.754,1,1,1
1,1080,easy,present,complex,59,0.631,1,1,1
1,1081,easy,present,complex,60,0.689,1,1,1
1,1082,easy,present,complex,61,0.708,1,1,1
1,1083,easy,present,complex,62,0.689,1,1,1
1,1084,easy,present,complex,63,1.005,1,1,1
1,1085,easy,present,complex,64,0.836,1,1,1
1,1086,easy,present,complex,65,0.920,1,1,1
1,1087,easy,present,complex,66,1.094,1,1,1
1,1088,easy,present,complex,67,0.706,1,1,1
1,1089,easy,present,complex,68,0.741,1,1,1
1,1090,easy,present,complex,69,0.959,1,1,1
1,1091,easy,present,complex,70,0.775,1,1,1
1,1092,easy,present,complex,71,0.622,1,1,1
1,1093,easy,present,complex,72,0.789,1,1,1
1,1094,easy,present,complex,73,1.314,1,1,1
1,1095,easy,present,complex,74,0.778,1,1,1
1,1096,easy,present,complex,75,0.748,1,1,1
1,1097,easy,present,complex,76,0.907,1,1,1
1,1098,easy,present,complex,77,0.758,1,1,1
1,1099,easy,present,complex,78,0.656,1,1,1
1,1100,easy,present,complex,79,1.041,1,1,1
1,1101,easy,present,complex,80,0.957,1,1,1
1,1102,easy,present,complex,81,1.379,1,1,1
1,1103,easy,present,complex,82,0.703,1,1,1
1,1104,easy,present,complex,83,0.665,1,1,1
1,1105,easy,present,complex,84,0.973,1,1,1
1,1106,easy,present,complex,85,0.696,1,1,1
1,1107,easy,present,complex,86,0.686,1,1,1
1,1108,easy,present,complex,87,0.740,1,1,1
1,1109,easy,present,complex,88,1.086,1,1,1
1,1110,easy,present,complex,89,0.843,1,1,1
1,1111,easy,present,complex,90,0.634,1,1,1
1,1112,easy,present,complex,91,0.804,1,1,1
1,1113,easy,present,complex,92,0.937,1,1,1
1,1114,easy,present,complex,93,0.843,1,1,1
1,1115,easy,present,complex,94,0.859,1,1,1
1,1116,easy,present,complex,95,0.702,1,1,1
1,1117,easy,present,complex,96,1.143,1,1,1
1,1118,easy,present,complex,97,0.851,1,1,1
1,1119,easy,present,complex,98,0.962,1,1,1
1,1120,easy,present,complex,99,0.787,1,1,1
1,1121,easy,present,complex,100,1.217,1,1,1
1,1122,easy,present,complex,101,0.602,1,1,1
1,1123,easy,present,complex,102,0.621,1,1,1
1,1124,easy,present,complex,103,0.871,1,1,1
1,1125,easy,present,complex,104,0.736,1,1,1
1,1126,easy,present,complex,105,0.711,1,1,1
1,1127,easy,present,complex,106,0.724,1,1,1
1,1128,easy,present,complex,107,0.744,1,1,1
1,1129,easy,present,complex,108,0.978,1,1,1
1,1130,easy,present,complex,109,0.855,1,1,1
1,1131,easy,present,complex,110,1.048,1,1,1
1,1132,easy,present,complex,111,1.105,1,1,1
1,1133,easy,present,complex,112,1.130,1,1,1
1,1134,easy,present,complex,113,0.777,1,1,1
1,1135,easy,present,complex,114,0.781,1,1,1
1,1136,easy,present,complex,115,1.403,1,1,1
1,1137,easy,present,complex,116,0.920,1,1,1
1,1138,easy,present,complex,117,0.649,1,1,1
1,1139,easy,present,complex,118,0.844,1,1,1
1,1140,easy,present,complex,119,0.760,1,1,1
1,1141,easy,present,complex,120,0.608,1,1,1
1,1142,easy,present,complex,121,0.883,1,1,1
1,1143,easy,present,complex,122,0.974,1,1,1
1,1144,easy,present,complex,123,0.727,1,1,1
1,1145,easy,present,complex,124,1.168,1,1,1
1,1146,easy,present,complex,125,1.347,1,1,1
1,1147,easy,present,complex,126,0.610,1,1,1
1,1148,easy,present,complex,127,0.856,1,1,1
1,1149,easy,present,complex,128,0.733,1,1,1
1,1150,easy,present,complex,129,1.143,1,1,1
1,1151,easy,present,complex,130,0.896,1,1,1
1,1152,easy,present,complex,131,0.842,1,1,1
1,1153,easy,present,complex,132,0.663,1,1,1
1,1154,easy,present,complex,133,0.841,1,1,1
1,1155,easy,present,complex,134,0.897,1,1,1
1,1156,easy,present,complex,135,1.792,1,1,1
1,1157,easy,present,complex,136,0.868,1,1,1
1,1158,easy,present,complex,137,0.914,1,1,1
1,1159,easy,present,complex,138,0.820,1,1,1
1,1160,easy,present,complex,139,0.800,1,1,1
1,1161,easy,present,complex,140,1.247,1,1,1
1,1162,easy,present,complex,141,0.624,1,1,1
1,1163,easy,present,complex,142,0.661,1,1,1
1,1164,easy,present,complex,143,0.656,1,1,1
1,1165,easy,present,complex,144,1.010,1,1,1
1,1166,easy,present,complex,145,0.746,1,1,1
1,1167,easy,present,complex,146,0.902,1,1,1
1,1168,easy,present,complex,147,0.879,1,1,1
1,1169,easy,present,complex,148,0.766,1,1,1
1,1170,easy,present,complex,149,0.836,1,1,1
1,1171,easy,present,complex,150,0.907,1,1,1
1,1172,easy,present,complex,151,1.524,1,1,1
1,1173,easy,present,complex,152,0.865,1,1,1
1,1174,easy,present,complex,153,0.885,1,1,1
1,1175,easy,present,complex,154,0.641,1,1,1
1,1176,easy,present,complex,155,1.695,1,1,1
1,1177,easy,present,complex,156,0.833,1,1,1
1,1178,easy,present,complex,157,1.063,1,1,1
1,1179,easy,present,complex,158,0.634,1,1,1
1,1180,easy,present,complex,159,0.780,1,1,1
1,1181,easy,present,complex,160,0.715,1,1,1
1,1182,easy,present,complex,161,0.725,1,1,1
1,1183,easy,present,complex,162,1.049,1,1,1
1,1184,easy,present,complex,163,0.894,1,1,1
1,1185,easy,present,complex,164,0.791,1,1,1
1,1186,easy,present,complex,165,0.607,1,1,1
1,1187,easy,present,complex,166,0.700,1,1,1
1,1188,easy,present,complex,167,0.629,1,1,1
1,1189,easy,present,complex,168,0.835,1,1,1
1,1190,easy,present,complex,169,1.680,1,1,1
1,1191,easy,present,complex,170,1.322,1,1,1
1,1192,easy,present,complex,171,0.870,1,1,1
1,1193,easy,present,complex,172,0.732,1,1,1
1,1194,easy,present,complex,173,0.741,1,1,1
1,1195,easy,present,complex,174,1.272,1,1,1
1,1196,easy,present,complex,175,0.819,1,1,1
1,1197,easy,present,complex,176,0.666,1,1,1
1,1198,easy,present,complex,177,0.714,1,1,1
1,1199,easy,present,complex,178,0.723,1,1,1
1,1200,easy,present,complex,179,0.670,1,1,1
1,1201,easy,present,complex,180,0.805,1,1,1
1,1202,easy,present,complex,181,1.346,1,1,1
1,1203,easy,present,complex,182,0.930,1,1,1
1,1204,easy,present,complex,183,0.645,1,1,1
1,1205,easy,present,complex,184,0.595,1,1,1
1,1206,easy,present,complex,185,0.725,1,1,1
1,1207,easy,present,complex,186,0.760,1,1,1
1,1208,easy,present,complex,187,1.031,1,1,1
1,1209,easy,present,complex,188,0.767,1,1,1
1,1210,easy,present,complex,189,0.939,1,1,1
1,1211,easy,present,complex,190,0.994,1,1,1
1,1212,easy,present,complex,191,0.902,1,1,1
1,1213,easy,present,complex,192,0.648,1,1,1
1,1214,easy,present,complex,193,0.744,1,1,1
1,1215,easy,present,complex,194,1.339,1,1,1
1,1216,easy,present,complex,195,0.695,1,1,1
1,1217,easy,present,complex,196,1.130,1,1,1
1,1218,easy,present,complex,197,0.947,1,1,1
1,1219,easy,present,complex,198,0.755,1,1,1
1,1220,easy,present,complex,199,0.837,1,1,1
1,1221,easy,present,complex,200,0.842,1,1,1
1,1222,easy,present,complex,201,0.965,1,1,1
1,1223,easy,present,complex,202,0.828,1,1,1
1,1224,easy,present,complex,203,0.674,1,1,1
1,1225,easy,present,complex,204,1.029,1,1,1
1,1226,easy,present,complex,205,0.777,1,1,1
1,1227,easy,present,complex,206,0.726,1,1,1
1,1228,easy,present,complex,207,0.719,1,1,1
1,1229,easy,present,complex,208,0.750,1,1,1
1,1230,easy,present,complex,209,0.857,1,1,1
1,1231,easy,present,complex,210,1.261,1,1,1
1,1232,easy,present,complex,211,0.690,1,1,1
1,1233,easy,present,complex,212,0.727,1,1,1
1,1234,easy,present,complex,213,0.868,1,1,1
1,1235,easy,present,complex,214,0.796,1,1,1
1,1236,easy,present,complex,215,0.790,1,1,1
1,1237,easy,present,complex,216,1.093,1,1,1
1,1238,easy,present,complex,217,1.395,1,1,1
1,1239,easy,present,complex,218,0.813,1,1,1
1,1240,easy,present,complex,219,0.941,1,1,1
1,1241,easy,present,complex,220,1.063,1,1,1
1,1242,easy,present,complex,221,0.829,1,1,1
1,1243,easy,present,complex,222,0.732,1,1,1
1,1244,easy,present,complex,223,0.903,1,1,1
1,1245,easy,present,complex,224,0.868,1,1,1
1,1246,easy,present,complex,225,1.286,1,1,1
1,1247,easy,present,complex,226,0.640,1,1,1
1,1248,easy,present,complex,227,1.322,1,1,1
1,1249,easy,present,complex,228,0.840,1,1,1
1,1250,easy,present,complex,229,0.611,1,1,1
1,1251,easy,present,complex,230,0.752,1,1,1
1,1252,easy,present,complex,231,0.971,1,1,1
1,1253,easy,present,complex,232,0.810,1,1,1
1,1254,easy,present,complex,233,0.782,1,1,1
1,1255,easy,present,complex,234,0.742,1,1,1
1,1256,easy,present,complex,235,1.094,1,1,1
1,1257,easy,present,complex,236,0.848,1,1,1
1,1258,easy,present,complex,237,0.937,1,1,1
1,1259,easy,present,complex,238,1.070,1,1,1
1,1260,easy,present,complex,239,0.928,1,1,1
1,1261,easy,present,complex,240,0.782,1,1,1
1,1262,easy,present,complex,241,0.668,1,1,1
1,1263,easy,present,complex,242,0.862,1,1,1
1,1264,easy,present,complex,243,1.274,1,1,1
1,1265,easy,present,complex,244,0.784,1,1,1
1,1266,easy,present,complex,245,1.322,1,1,1
1,1267,easy,present,complex,246,0.823,1,1,1
1,1268,easy,present,complex,247,0.891,1,1,1
1,1269,easy,present,complex,248,1.113,1,1,1
1,1270,easy,present,complex,249,0.855,1,1,1
1,1271,easy,present,complex,250,0.654,1,1,1
1,1272,easy,present,complex,251,0.710,1,1,1
1,1273,easy,present,complex,252,0.965,1,1,1
1,1274,easy,present,complex,253,0.822,1,1,1
1,1275,easy,present,complex,254,0.806,1,1,1
1,1276,easy,present,complex,255,0.712,1,1,1
1,1277,easy,present,complex,256,0.972,1,1,1
1,1278,easy,present,complex,257,0.665,1,1,1
1,1279,easy,present,complex,258,1.136,1,1,1
1,1280,easy,present,complex,259,0.837,1,1,1
1,1281,easy,present,complex,260,0.783,1,1,1
1,1282,easy,present,complex,261,0.725,1,1,1
1,1283,easy,present,complex,262,0.821,1,1,1
1,1284,easy,present,complex,263,1.215,1,1,1
1,1285,easy,present,complex,264,0.720,1,1,1
1,1286,easy,present,complex,265,0.821,1,1,1
1,1287,easy,present,complex,266,0.707,1,1,1
1,1288,easy,present,complex,267,0.749,1,1,1
1,1289,easy,present,complex,268,0.691,1,1,1
1,1290,easy,present,complex,269,0.857,1,1,1
1,1291,easy,present,complex,270,0.984,1,1,1
1,1292,easy,present,complex,271,0.656,1,1,1
1,1293,easy,present,complex,272,0.758,1,1,1
1,1294,easy,present,complex,273,1.255,1,1,1
1,1295,easy,present,complex,274,0.654,1,1,1
1,1296,easy,present,complex,275,0.682,1,1,1
1,1297,easy,present,complex,276,0.894,1,1,1
1,1298,easy,present,complex,277,0.895,1,1,1
1,1299,easy,present,complex,278,1.122,1,1,1
1,1300,easy,present,complex,279,1.474,1,1,1
1,1301,easy,present,complex,280,0.670,1,1,1
1,1302,easy,present,complex,281,0.719,1,1,1
1,1303,easy,present,complex,282,0.785,1,1,1
1,1304,easy,present,complex,283,0.582,1,1,1
1,1305,easy,present,complex,284,0.643,1,1,1
1,1306,easy,present,complex,285,0.706,1,1,1
1,1307,easy,present,complex,286,0.813,1,1,1
1,1308,easy,present,complex,287,0.713,1,1,1
1,1309,easy,present,complex,288,1.209,1,1,1
1,1310,easy,present,complex,289,0.742,1,1,1
1,1311,easy,present,complex,290,1.393,1,1,1
1,1312,easy,present,complex,291,0.799,1,1,1
1,1313,easy,present,complex,292,0.709,1,1,1
1,1314,easy,present,complex,293,0.728,1,1,1
1,1315,easy,present,complex,294,1.028,1,1,1
1,1316,easy,present,complex,295,0.720,1,1,1
1,1317,easy,present,complex,296,0.767,1,1,1
1,1318,easy,present,complex,297,0.809,1,1,1
1,1319,easy,present,complex,298,0.863,1,1,1
1,1320,easy,present,complex,299,0.706,1,1,1
1,1321,easy,present,complex,300,0.750,1,1,1
1,1322,easy,present,complex,301,0.718,1,1,1
1,1323,easy,present,complex,302,0.755,1,1,1
1,1324,easy,present,complex,303,0.659,1,1,1
1,1325,easy,present,complex,304,0.756,1,1,1
1,1326,easy,present,complex,305,1.238,1,1,1
1,1327,easy,present,complex,306,0.734,1,1,1
1,1328,easy,present,complex,307,0.764,1,1,1
1,1329,easy,present,complex,308,1.562,1,1,1
1,1330,easy,present,complex,309,0.980,1,1,1
1,1331,easy,present,complex,310,0.827,1,1,1
1,1332,easy,present,complex,311,1.031,1,1,1
1,1333,easy,present,complex,312,0.667,1,1,1
1,1334,easy,present,complex,313,0.804,1,1,1
1,1335,easy,present,complex,314,0.662,1,1,1
1,1336,easy,present,complex,315,0.707,1,1,1
1,1337,easy,present,complex,316,0.670,1,1,1
1,1338,easy,present,complex,317,0.757,1,1,1
1,1339,easy,present,complex,318,0.769,1,1,1
1,1340,easy,present,complex,319,1.604,1,1,1
1,1341,easy,present,complex,320,0.719,1,1,1
1,1342,easy,present,complex,321,0.805,1,1,1
1,1343,easy,present,complex,322,1.075,1,1,1
1,1344,easy,present,complex,323,1.082,1,1,1
1,1345,easy,present,complex,324,0.997,1,1,1
1,1346,easy,present,complex,325,0.730,1,1,1
1,1347,easy,present,complex,326,0.817,1,1,1
1,1348,easy,present,complex,327,0.691,1,1,1
1,1349,easy,present,complex,328,0.693,1,1,1
1,1350,easy,present,complex,329,0.790,1,1,1
1,1351,easy,present,complex,330,0.989,1,1,1
1,1352,easy,present,complex,331,0.834,1,1,1
1,1353,easy,present,complex,332,1.236,1,1,1
1,1354,easy,present,complex,333,1.106,1,1,1
1,1355,easy,present,complex,334,0.623,1,1,1
1,1356,easy,present,complex,335,0.858,1,1,1
1,1357,easy,present,complex,336,0.885,1,1,1
1,1358,easy,present,complex,337,0.617,1,1,1
1,1359,easy,present,complex,338,0.838,1,1,1
1,1360,easy,present,complex,339,0.698,1,1,1
1,1361,easy,present,complex,340,0.638,1,1,1
1,1362,easy,present,complex,341,0.869,1,1,1
1,1363,easy,present,complex,342,1.027,1,1,1
1,1364,easy,present,complex,343,1.029,1,1,1
1,1365,easy,present,complex,344,0.621,1,1,1
1,1366,easy,present,complex,345,0.777,1,1,1
1,1367,easy,present,complex,346,0.634,1,1,1
1,1368,easy,present,complex,347,0.712,1,1,1
1,1369,easy,present,complex,348,0.693,1,1,1
1,1370,easy,present,complex,349,0.701,1,1,1
1,1371,easy,present,complex,350,0.746,1,1,1
1,1372,easy,present,complex,351,0.722,1,1,1
1,1373,easy,present,complex,352,0.752,1,1,1
1,1374,easy,present,complex,353,1.256,1,1,1
1,1375,easy,present,complex,354,0.687,1,1,1
1,1376,easy,present,complex,355,1.010,1,1,1
1,1377,easy,present,complex,356,0.644,1,1,1
1,1378,easy,present,complex,357,0.801,1,1,1
1,1379,easy,present,complex,358,0.598,1,1,1
1,1380,easy,present,complex,359,1.075,1,1,1
1,1381,easy,present,complex,360,1.659,1,1,1
1,1382,easy,present,complex,361,0.626,1,1,1
1,1383,easy,present,complex,362,1.455,1,1,1
1,1384,easy,present,complex,363,1.027,1,1,1
1,1385,easy,present,complex,364,0.760,1,1,1
1,1386,easy,present,complex,365,1.311,1,1,1
1,1387,easy,present,complex,366,0.733,1,1,1
1,1388,easy,present,complex,367,0.777,1,1,1
1,1389,easy,present,complex,368,0.656,1,1,1
1,1390,easy,present,complex,369,0.920,1,1,1
1,1391,easy,present,complex,370,0.624,1,1,1
1,1392,easy,present,complex,371,0.814,1,1,1
1,1393,easy,present,complex,372,0.938,1,1,1
1,1394,easy,present,complex,373,1.094,1,1,1
1,1395,easy,present,complex,374,0.677,1,1,1
1,1396,easy,present,complex,375,1.002,1,1,1
1,1397,easy,present,complex,376,0.967,1,1,1
1,1398,easy,present,complex,377,0.851,1,1,1
1,1399,easy,present,complex,378,0.870,1,1,1
1,1400,easy,present,complex,379,0.651,1,1,1
1,1401,easy,present,complex,380,0.876,1,1,1
1,1402,easy,present,complex,381,0.766,1,1,1
1,1403,easy,present,complex,382,1.184,1,1,1
1,1404,easy,present,complex,383,0.739,1,1,1
1,1405,easy,present,complex,384,0.862,1,1,1
1,1406,easy,present,complex,385,0.785,1,1,1
1,1407,easy,present,complex,386,1.210,1,1,1
1,1408,easy,present,complex,387,0.716,1,1,1
1,1409,easy,present,complex,388,0.649,1,1,1
1,1410,easy,present,complex,389,0.999,1,1,1
1,1411,easy,present,complex,390,0.780,1,1,1
1,1412,easy,present,complex,391,0.869,1,1,1
1,1413,easy,present,complex,392,0.622,1,1,1
1,1414,easy,present,complex,393,1.691,1,1,1
1,1415,easy,present,complex,394,1.207,1,1,1
1,1416,easy,present,complex,395,0.891,1,1,1
1,1417,easy,present,complex,396,0.614,1,1,1
1,1418,easy,present,complex,397,0.764,1,1,1
1,1419,easy,present,complex,398,0.936,1,1,1
1,1420,easy,present,complex,399,0.680,1,1,1
1,1421,easy,present,complex,400,0.803,1,1,1
1,1422,easy,present,complex,401,0.836,1,1,1
1,1423,easy,present,complex,402,0.617,1,1,1
1,1424,easy,present,complex,403,0.888,1,1,1
1,1425,easy,present,complex,404,0.723,1,1,1
1,1426,easy,present,complex,405,0.657,1,1,1
1,1427,easy,present,complex,406,0.775,1,1,1
1,1428,easy,present,complex,407,0.850,1,1,1
1,1429,easy,present,complex,408,0.613,1,1,1
1,1430,easy,present,complex,409,0.855,1,1,1
1,1431,easy,present,complex,410,0.826,1,1,1
1,1432,easy,present,complex,411,1.051,1,1,1
1,1433,easy,present,complex,412,0.784,1,1,1
1,1434,easy,present,complex,413,0.847,1,1,1
1,1435,easy,present,complex,414,0.995,1,1,1
1,1436,easy,present,complex,415,1.268,1,1,1
1,1437,easy,present,complex,416,0.770,1,1,1
1,1438,easy,present,complex,417,0.875,1,1,1
1,1439,easy,present,complex,418,0.946,1,1,1
1,1440,easy,present,complex,419,0.633,1,1,1
1,1441,easy,present,complex,420,1.062,1,1,1
1,1442,easy,present,complex,421,0.764,1,1,1
1,1443,easy,present,complex,422,0.927,1,1,1
1,1444,easy,present,complex,423,0.809,1,1,1
1,1445,easy,present,complex,424,0.953,1,1,1
1,1446,easy,present,complex,425,0.971,1,1,1
1,1447,easy,present,complex,426,0.694,1,1,1
1,1448,easy,present,complex,427,0.919,1,1,1
1,1449,easy,present,complex,428,1.146,1,1,1
1,1450,easy,present,complex,429,0.708,1,1,1
1,1451,easy,present,complex,430,1.007,1,1,1
1,1452,easy,present,complex,431,0.897,1,1,1
1,1453,easy,present,complex,432,1.767,1,1,1
1,1454,easy,present,complex,433,0.716,1,1,1
1,1455,easy,present,complex,434,0.676,1,1,1
1,1456,easy,present,complex,435,0.735,1,1,1
1,1457,easy,present,complex,436,0.716,1,1,1
1,1458,easy,present,complex,437,1.009,1,1,1
1,1459,easy,present,complex,438,0.980,1,1,1
1,1460,easy,present,complex,439,0.927,1,1,1
1,1461,easy,present,complex,440,0.704,1,1,1
1,1462,easy,present,complex,441,1.171,1,1,1
1,1463,easy,present,complex,442,1.816,1,1,1
1,1464,easy,present,complex,443,0.839,1,1,1
1,1465,easy,present,complex,444,0.913,1,1,1
1,1466,easy,present,complex,445,0.823,1,1,1
1,1467,easy,present,complex,446,0.726,1,1,1
1,1468,easy,present,complex,447,0.729,1,1,1
1,1469,easy,present,complex,448,0.736,1,1,1
1,1470,easy,present,complex,449,0.691,1,1,1
1,1471,easy,present,complex,450,1.289,1,1,1
1,1472,easy,present,complex,451,1.162,1,1,1
1,1473,easy,present,complex,452,0.802,1,1,1
1,1474,easy,present,complex,453,0.756,1,1,1
1,1475,easy,present,complex,454,1.502,1,1,1
1,1476,easy,present,complex,455,0.702,1,1,1
1,1477,easy,present,complex,456,0.848,1,1,1
1,1478,easy,present,complex,457,0.636,1,1,1
1,1479,easy,present,complex,458,0.692,1,1,1
1,1480,easy,present,complex,459,0.879,1,1,1
1,1481,easy,present,complex,460,0.920,1,1,1
1,1482,easy,present,complex,461,0.863,1,1,1
1,1483,easy,present,complex,462,1.186,1,1,1
1,1484,easy,present,complex,463,1.013,1,1,1
1,1485,easy,present,complex,464,0.802,1,1,1
1,1486,easy,present,complex,465,1.114,1,1,1
1,1487,easy,present,complex,466,0.669,1,1,1
1,1488,easy,present,complex,467,0.938,1,1,1
1,1489,easy,present,complex,468,0.826,1,1,1
1,1490,easy,present,complex,469,0.688,1,1,1
1,1491,easy,present,complex,470,0.746,1,1,1
1,1492,easy,present,complex,471,0.890,1,1,1
1,1493,easy,present,complex,472,1.214,1,1,1
1,1494,easy,present,complex,473,0.822,1,1,1
1,1495,easy,present,complex,474,0.663,1,1,1
1,1496,easy,present,complex,475,1.087,1,1,1
1,1497,easy,present,complex,476,0.750,1,1,1
1,1498,easy,present,complex,477,1.228,1,1,1
1,1499,easy,present,complex,478,1.153,1,1,1
1,1500,easy,present,complex,479,0.756,1,1,1
1,1501,easy,present,complex,480,1.007,1,1,1
1,1502,easy,present,complex,481,0.831,1,1,1
1,1503,easy,present,complex,482,0.805,1,1,1
1,1504,easy,present,complex,483,0.611,1,1,1
1,1505,easy,present,complex,484,0.951,1,1,1
1,1506,easy,present,complex,485,1.164,1,1,1
1,1507,easy,present,complex,486,0.713,1,1,1
1,1508,easy,present,complex,487,0.735,1,1,1
1,1509,easy,present,complex,488,0.820,1,1,1
1,1510,easy,present,complex,489,0.648,1,1,1
1,1511,easy,present,complex,490,0.653,1,1,1
1,1512,easy,present,complex,491,0.781,1,1,1
1,1513,easy,present,complex,492,0.718,1,1,1
1,1514,easy,present,complex,493,0.776,1,1,1
1,1515,easy,present,complex,494,0.797,1,1,1
1,1516,easy,present,complex,495,1.561,1,1,1
1,1517,easy,present,complex,496,0.675,1,1,1
1,1518,easy,present,complex,497,1.225,1,1,1
1,1519,easy,present,complex,498,0.647,1,1,1
1,1520,easy,present,complex,499,0.821,1,1,1
1,1521,easy,present,complex,500,0.685,1,1,1
1,1522,easy,present,complex,501,0.759,1,1,1
1,1523,easy,present,complex,502,0.994,1,1,1
1,1524,easy,present,complex,503,0.782,1,1,1
1,1525,easy,present,complex,504,1.072,1,1,1
1,1526,easy,present,complex,505,0.969,1,1,1
1,1527,easy,present,complex,506,1.543,1,1,1
1,1528,easy,present,complex,507,0.838,1,1,1
1,1529,easy,present,complex,508,1.063,1,1,1
1,1530,easy,present,complex,509,0.744,1,1,1
1,1531,easy,present,complex,510,0.750,1,1,1
1,1532,easy,present,complex,511,0.772,1,1,1
1,1533,easy,present,complex,512,0.776,1,1,1
1,1534,easy,present,complex,513,0.656,1,1,1
1,1535,easy,present,complex,514,0.826,1,1,1
1,1536,easy,present,complex,515,0.658,1,1,1
1,1537,easy,present,complex,516,1.245,1,1,1
1,1538,easy,present,complex,517,0.645,1,1,1
1,1539,easy,present,complex,518,0.798,1,1,1
1,1540,easy,present,complex,519,0.725,1,1,1
1,1541,easy,present,complex,520,0.678,1,1,1
1,1542,easy,present,complex,521,1.036,1,1,1
1,1543,easy,present,complex,522,0.961,1,1,1
1,1544,easy,present,complex,523,0.679,1,1,1
1,1545,easy,present,complex,524,0.896,1,1,1
1,1546,easy,present,complex,525,1.051,1,1,1
1,1547,easy,present,complex,526,1.025,1,1,1
1,1548,easy,present,complex,527,0.654,1,1,1
1,1549,easy,present,complex,528,0.938,1,1,1
1,1550,easy,present,complex,529,0.965,1,1,1
1,1551,easy,present,complex,530,1.171,1,1,1
1,1552,easy,present,complex,531,0.824,1,1,1
1,1553,easy,present,complex,532,0.801,1,1,1
1,1554,easy,present,complex,533,1.056,1,1,1
1,1555,easy,present,complex,534,0.852,1,1,1
1,1556,easy,present,complex,535,0.749,1,1,1
1,1557,easy,present,complex,536,1.137,1,1,1
1,1558,easy,present,complex,537,0.798,1,1,1
1,1559,easy,present,complex,538,0.652,1,1,1
1,1560,easy,present,complex,539,0.795,1,1,1
1,1561,easy,present,complex,540,1.192,1,1,1
1,1562,easy,present,complex,541,0.794,1,1,1
1,1563,easy,present,complex,542,0.610,1,1,1
1,1564,easy,present,complex,543,0.884,1,1,1
1,1565,easy,present,complex,544,1.087,1,1,1
1,1566,easy,present,complex,545,0.889,1,1,1
1,1567,easy,present,complex,546,1.338,1,1,1
1,1568,easy,present,complex,547,1.084,1,1,1
1,1569,easy,present,complex,548,0.819,1,1,1
1,1570,easy,present,complex,549,0.870,1,1,1
1,1571,easy,present,complex,550,0.982,1,1,1
1,1572,easy,present,complex,551,1.137,1,1,1
1,1573,easy,present,complex,552,0.640,1,1,1
1,1574,easy,present,complex,553,1.029,1,1,1
1,1575,easy,present,complex,554,0.792,1,1,1
1,1576,easy,present,complex,555,0.915,1,1,1
1,1577,easy,present,complex,556,1.017,1,1,1
1,1578,easy,present,complex,557,0.843,1,1,1
1,1579,easy,present,complex,558,0.685,1,1,1
1,1580,easy,present,complex,559,0.776,1,1,1
1,1581,easy,present,complex,560,0.647,1,1,1
1,1582,easy,present,complex,561,0.943,1,1,1
1,1583,easy,present,complex,562,1.728,1,1,1
1,1584,easy,present,complex,563,1.051,1,1,1
1,1585,easy,present,complex,564,0.766,1,1,1
1,1586,easy,present,complex,565,0.867,1,1,1
1,1587,easy,present,complex,566,0.734,1,1,1
1,1588,easy,present,complex,567,0.844,1,1,1
1,1589,easy,present,complex,568,0.735,1,1,1
1,1590,easy,present,complex,569,0.987,1,1,1
1,1591,easy,present,complex,570,0.717,1,1,1
1,1592,easy,present,complex,571,0.919,1,1,1
1,1593,easy,present,complex,572,0.643,1,1,1
1,1594,easy,present,complex,573,0.609,1,1,1
1,1595,easy,present,complex,574,0.705,1,1,1
1,1596,easy,present,complex,575,0.735,1,1,1
1,1597,easy,present,complex,576,0.696,1,1,1
1,1598,easy,present,complex,577,1.417,1,1,1
1,1599,easy,present,complex,578,0.910,1,1,1
1,1600,easy,present,complex,579,0.820,1,1,1
1,1601,easy,present,complex,580,0.853,1,1,1
1,1602,easy,present,complex,581,0.741,1,1,1
1,1603,easy,present,complex,582,0.888,1,1,1
1,1604,easy,present,complex,583,0.785,1,1,1
1,1605,easy,present,complex,584,0.699,1,1,1
1,1606,easy,present,complex,585,0.916,1,1,1
1,1607,easy,present,complex,586,0.760,1,1,1
1,1608,easy,present,complex,587,1.045,1,1,1
1,1609,easy,present,complex,588,0.785,1,1,1
1,1610,easy,present,complex,589,0.822,1,1,1
1,1611,easy,present,complex,590,1.042,1,1,1
1,1612,easy,present,complex,591,0.791,1,1,1
1,1613,easy,present,complex,592,1.052,1,1,1
1,1614,easy,present,complex,593,1.104,1,1,1
1,1615,easy,present,complex,594,1.733,1,1,1
1,1616,easy,present,complex,595,0.765,1,1,1
1,1617,easy,present,complex,596,0.862,1,1,1
1,1618,easy,present,complex,597,0.949,1,1,1
1,1619,easy,present,complex,598,0.928,1,1,1
1,1620,easy,present,complex,599,1.708,1,1,1
1,1621,easy,present,complex,600,0.728,1,1,1
1,1622,easy,present,complex,601,0.728,1,1,1
1,1623,easy,present,complex,602,1.358,1,1,1
1,1624,easy,present,complex,603,1.058,1,1,1
1,1625,easy,present,complex,604,0.698,1,1,1
1,1626,easy,present,complex,605,0.859,1,1,1
1,1627,easy,present,complex,606,0.992,1,1,1
1,1628,easy,present,complex,607,0.752,1,1,1
1,1629,easy,present,complex,608,0.787,1,1,1
1,1630,easy,present,complex,609,0.861,1,1,1
1,1631,easy,present,complex,610,0.802,1,1,1
1,1632,easy,present,complex,611,1.000,1,1,1
1,1633,easy,present,complex,612,0.597,1,1,1
1,1634,easy,present,complex,613,0.787,1,1,1
1,1635,easy,present,complex,614,0.745,1,1,1
1,1636,easy,present,complex,615,0.881,1,1,1
1,1637,easy,present,complex,616,1.026,1,1,1
1,1638,easy,present,complex,617,0.646,1,1,1
1,1639,easy,present,complex,618,0.682,1,1,1
1,1640,easy,present,complex,619,0.921,1,1,1
1,1641,easy,present,complex,620,0.989,1,1,1
1,1642,easy,present,complex,621,0.867,1,1,1
1,1643,easy,present,complex,622,0.818,1,1,1
1,1644,easy,present,complex,623,0.671,1,1,1
1,1645,easy,present,complex,624,0.935,1,1,1
1,1646,easy,present,complex,625,0.876,1,1,1
1,1647,easy,present,complex,626,0.872,1,1,1
1,1648,easy,present,complex,627,0.843,1,1,1
1,1649,easy,present,complex,628,1.503,1,1,1
1,1650,easy,present,complex,629,0.665,1,1,1
1,1651,easy,present,complex,630,0.649,1,1,1
1,1652,easy,present,complex,631,0.677,1,1,1
1,1653,easy,present,complex,632,0.713,1,1,1
1,1654,easy,present,complex,633,0.870,1,1,1
1,1655,easy,present,complex,634,0.882,1,1,1
1,1656,easy,present,complex,635,0.705,1,1,1
1,1657,easy,present,complex,636,0.814,1,1,1
1,1658,easy,present,complex,637,0.811,1,1,1
1,1659,easy,present,complex,638,0.798,1,1,1
1,1660,easy,present,complex,639,1.066,1,1,1
1,1661,easy,present,complex,640,0.806,1,1,1
1,1662,easy,present,complex,641,1.010,1,1,1
1,1663,easy,present,complex,642,0.683,1,1,1
1,1664,easy,present,complex,643,0.839,1,1,1
1,1665,easy,present,complex,644,1.097,1,1,1
1,1666,easy,present,complex,645,0.689,1,1,1
1,1667,easy,present,complex,646,0.805,1,1,1
1,1668,easy,present,complex,647,0.882,1,1,1
1,1669,easy,present,complex,648,0.695,1,1,1
1,1670,easy,present,complex,649,1.007,1,1,1
1,1671,easy,present,complex,650,0.647,1,1,1
1,1672,easy,present,complex,651,1.595,1,1,1
1,1673,easy,present,complex,652,0.805,1,1,1
1,1674,easy,present,complex,653,0.746,1,1,1
1,1675,easy,present,complex,654,0.664,1,1,1
1,1676,easy,present,complex,655,0.787,1,1,1
1,1677,easy,present,complex,656,0.920,1,1,1
1,1678,easy,present,complex,657,0.659,1,1,1
1,1679,easy,present,complex,658,0.740,1,1,1
1,1680,easy,present,complex,659,1.118,1,1,1
1,1681,easy,present,complex,660,0.906,1,1,1
1,1682,easy,present,complex,661,0.696,1,1,1
1,1683,easy,present,complex,662,0.683,1,1,1
1,1684,easy,present,complex,663,1.298,1,1,1
1,1685,easy,present,complex,664,0.729,1,1,1
1,1686,easy,present,complex,665,0.686,1,1,1
1,1687,easy,present,complex,666,0.738,1,1,1
1,1688,easy,present,complex,667,0.667,1,1,1
1,1689,easy,present,complex,668,0.801,1,1,1
1,1690,easy,present,complex,669,0.788,1,1,1
1,1691,easy,present,complex,670,1.406,1,1,1
1,1692,easy,present,complex,671,0.673,1,1,1
1,1693,easy,present,complex,672,0.651,1,1,1
1,1694,easy,present,complex,673,0.654,1,1,1
1,1695,easy,present,complex,674,1.297,1,1,1
1,1696,easy,present,complex,675,0.798,1,1,1
1,1697,easy,present,complex,676,0.676,1,1,1
1,1698,easy,present,complex,677,0.873,1,1,1
1,1699,easy,present,complex,678,0.836,1,1,1
1,1700,easy,present,complex,679,0.700,1,1,1
1,1701,easy,present,complex,680,0.877,1,1,1
1,1702,easy,present,complex,681,0.748,1,1,1
1,1703,easy,present,complex,682,0.706,1,1,1
1,1704,easy,present,complex,683,0.829,1,1,1
1,1705,easy,present,complex,684,0.729,1,1,1
1,1706,easy,present,complex,685,0.701,1,1,1
1,1707,easy,present,complex,686,1.220,1,1,1
1,1708,easy,present,complex,687,0.675,1,1,1
1,1709,easy,present,complex,688,0.729,1,1,1
1,1710,easy,present,complex,689,0.767,1,1,1
1,1711,easy,present,complex,690,0.724,1,1,1
1,1712,easy,present,complex,691,0.697,1,1,1
1,1713,easy,present,complex,692,1.020,1,1,1
1,1714,easy,present,complex,693,0.741,1,1,1
1,1715,easy,present,complex,694,0.665,1,1,1
1,1716,easy,present,complex,695,0.842,1,1,1
1,1717,easy,present,complex,696,0.666,1,1,1
1,1718,easy,present,complex,697,0.759,1,1,1
1,1719,easy,present,complex,698,1.220,1,1,1
1,1720,easy,present,complex,699,0.760,1,1,1
1,1721,easy,present,complex,700,0.896,1,1,1
1,1722,easy,present,complex,701,0.825,1,1,1
1,1723,easy,present,complex,702,0.675,1,1,1
1,1724,easy,present,complex,703,0.913,1,1,1
1,1725,easy,present,complex,704,1.158,1,1,1
1,1726,easy,present,complex,705,0.654,1,1,1
1,1727,easy,present,complex,706,1.003,1,1,1
1,1728,easy,present,complex,707,0.941,1,1,1
1,1729,easy,present,complex,708,1.181,1,1,1
1,1730,easy,present,complex,709,0.659,1,1,1
1,1731,easy,present,complex,710,0.737,1,1,1
1,1732,easy,present,complex,711,0.947,1,1,1
1,1733,easy,present,complex,712,0.617,1,1,1
1,1734,easy,present,complex,713,0.980,1,1,1
1,1735,easy,present,complex,714,1.164,1,1,1
1,1736,easy,present,complex,715,0.798,1,1,1
1,1737,easy,present,complex,716,0.788,1,1,1
1,1738,easy,present,complex,717,0.721,1,1,1
1,1739,easy,present,complex,718,0.597,1,1,1
1,1740,easy,present,complex,719,0.691,1,1,1
1,1741,easy,present,complex,720,1.183,1,1,1
1,1742,easy,present,complex,721,0.725,1,1,1
1,1743,easy,present,complex,722,0.758,1,1,1
1,1744,easy,present,complex,723,0.732,1,1,1
1,1745,easy,present,complex,724,0.676,1,1,1
1,1746,easy,present,complex,725,1.287,1,1,1
1,1747,easy,present,complex,726,0.743,1,1,1
1,1748,easy,present,complex,727,0.954,1,1,1
1,1749,easy,present,complex,728,0.750,1,1,1
1,1750,easy,present,complex,729,0.656,1,1,1
1,1751,easy,present,complex,730,0.772,1,1,1
1,1752,easy,present,complex,731,0.846,1,1,1
1,1753,easy,present,complex,732,0.669,1,1,1
1,1754,easy,present,complex,733,1.089,1,1,1
1,1755,easy,present,complex,734,0.819,1,1,1
1,1756,easy,present,complex,735,0.705,1,1,1
1,1757,easy,present,complex,736,0.873,1,1,1
1,1758,easy,present,complex,737,1.051,1,1,1
1,1759,easy,present,complex,738,0.741,1,1,1
1,1760,easy,present,complex,739,0.954,1,1,1
1,1761,easy,present,complex,740,0.786,1,1,1
1,1762,easy,present,complex,741,1.023,1,1,1
1,1763,easy,present,complex,742,0.756,1,1,1
1,1764,easy,present,complex,743,0.612,1,1,1
1,1765,easy,present,complex,744,0.915,1,1,1
1,1766,easy,present,complex,745,0.695,1,1,1
1,1767,easy,present,complex,746,0.669,1,1,1
1,1768,easy,present,complex,747,1.442,1,1,1
1,1769,easy,present,complex,748,0.725,1,1,1
1,1770,easy,present,complex,749,0.732,1,1,1
1,1771,easy,present,complex,750,0.682,1,1,1
1,1772,easy,present,complex,751,0.796,1,1,1
1,1773,easy,present,complex,752,1.175,1,1,1
1,1774,easy,present,complex,753,0.952,1,1,1
1,1775,easy,present,complex,754,1.138,1,1,1
1,1776,easy,present,complex,755,0.709,1,1,1
1,1777,easy,present,complex,756,0.978,1,1,1
1,1778,easy,present,complex,757,1.364,1,1,1
1,1779,easy,present,complex,758,0.726,1,1,1
1,1780,easy,present,complex,759,0.943,1,1,1
1,1781,easy,present,complex,760,0.774,1,1,1
1,1782,easy,present,complex,761,0.726,1,1,1
1,1783,easy,present,complex,762,0.754,1,1,1
1,1784,easy,present,complex,763,0.664,1,1,1
1,1785,easy,present,complex,764,0.766,1,1,1
1,1786,easy,present,complex,765,0.792,1,1,1
1,1787,easy,present,complex,766,1.003,1,1,1
1,1788,easy,present,complex,767,1.647,1,1,1
1,1789,easy,present,complex,768,1.088,1,1,1
1,1790,easy,present,complex,769,1.437,1,1,1
1,1791,easy,present,complex,770,0.809,1,1,1
1,1792,easy,present,complex,771,0.969,1,1,1
1,1793,easy,present,complex,772,0.739,1,1,1
1,1794,easy,present,complex,773,0.643,1,1,1
1,1795,easy,present,complex,774,0.758,1,1,1
1,1796,easy,present,complex,775,0.947,1,1,1
1,1797,easy,present,complex,776,0.720,1,1,1
1,1798,easy,present,complex,777,1.166,1,1,1
1,1799,easy,present,complex,778,1.045,1,1,1
1,1800,easy,present,complex,779,0.692,1,1,1
1,1801,easy,present,complex,780,0.749,1,1,1
1,1802,easy,present,complex,781,1.098,1,1,1
1,1803,easy,present,complex,782,0.713,1,1,1
1,1804,easy,present,complex,783,0.746,1,1,1
1,1805,easy,present,complex,784,0.746,1,1,1
1,1806,easy,present,complex,785,1.061,1,1,1
1,1807,easy,present,complex,786,0.629,1,1,1
1,1808,easy,present,complex,787,0.646,1,1,1
1,1809,easy,present,complex,788,0.863,1,1,1
1,1810,easy,present,complex,789,0.771,1,1,1
1,1811,easy,present,complex,790,0.896,1,1,1
1,1812,easy,present,complex,791,0.722,1,1,1
1,1813,easy,present,complex,792,1.317,1,1,1
1,1814,easy,present,complex,793,1.012,1,1,1
1,1815,easy,present,complex,794,0.643,1,1,1
1,1816,easy,present,complex,795,1.037,1,1,1
1,1817,easy,present,complex,796,1.535,1,1,1
1,1818,easy,present,complex,797,0.982,1,1,1
1,1819,easy,present,complex,798,0.668,1,1,1
1,1820,easy,present,complex,799,0.863,1,1,1
1,1821,easy,present,complex,800,0.726,1,1,1
1,1822,easy,present,complex,801,0.967,1,1,1
1,1823,easy,present,complex,802,0.883,1,1,1
1,1824,easy,present,complex,803,0.946,1,1,1
1,1825,easy,present,complex,804,0.793,1,1,1
1,1826,easy,present,complex,805,0.762,1,1,1
1,1827,easy,present,complex,806,1.471,1,1,1
1,1828,easy,present,complex,807,0.749,1,1,1
1,1829,easy,present,complex,808,0.626,1,1,1
1,1830,easy,present,complex,809,0.771,1,1,1
1,1831,easy,present,complex,810,1.045,1,1,1
1,1832,easy,present,complex,811,0.909,1,1,1
1,1833,easy,present,complex,812,0.663,1,1,1
1,1834,easy,present,complex,813,1.326,1,1,1
1,1835,easy,present,complex,814,0.761,1,1,1
1,1836,easy,present,complex,815,0.807,1,1,1
1,1837,easy,present,complex,816,0.788,1,1,1
1,1838,easy,present,complex,817,0.664,1,1,1
1,1839,easy,present,complex,818,0.712,1,1,1
1,1840,easy,present,complex,819,0.994,1,1,1
1,1841,easy,present,complex,820,0.617,1,1,1
1,1842,easy,present,complex,821,0.670,1,1,1
1,1843,easy,present,complex,822,0.617,1,1,1
1,1844,easy,present,complex,823,1.160,1,1,1
1,1845,easy,present,complex,824,0.887,1,1,1
1,1846,easy,present,complex,825,0.685,1,1,1
1,1847,easy,present,complex,826,1.024,1,1,1
1,1848,easy,present,complex,827,1.462,1,1,1
1,1849,easy,present,complex,828,1.377,1,1,1
1,1850,easy,present,complex,829,0.604,1,1,1
1,1851,easy,present,complex,830,0.865,1,1,1
1,1852,easy,present,complex,831,0.715,1,1,1
1,1853,easy,present,complex,832,0.856,1,1,1
1,1854,easy,present,complex,833,0.743,1,1,1
1,1855,easy,present,complex,834,0.677,1,1,1
1,1856,easy,present,complex,835,0.794,1,1,1
1,1857,easy,present,complex,836,0.816,1,1,1
1,1858,easy,present,complex,837,0.634,1,1,1
1,1859,easy,present,complex,838,0.733,1,1,1
1,1860,easy,present,complex,839,1.147,1,1,1
1,1861,easy,present,complex,840,0.916,1,1,1
1,1862,easy,present,complex,841,1.103,1,1,1
1,1863,easy,present,complex,842,0.916,1,1,1
1,1864,easy,present,complex,843,1.010,1,1,1
1,1865,easy,present,complex,844,0.818,1,1,1
1,1866,easy,present,complex,845,0.696,1,1,1
1,1867,easy,present,complex,846,1.079,1,1,1
1,1868,easy,present,complex,847,0.856,1,1,1
1,1869,easy,present,complex,848,0.674,1,1,1
1,1870,easy,present,complex,849,1.067,1,1,1
1,1871,easy,present,complex,850,1.911,1,1,1
1,1872,easy,present,complex,851,0.750,1,1,1
1,1873,easy,present,complex,852,0.735,1,1,1
1,1874,easy,present,complex,853,0.646,1,1,1
1,1875,easy,present,complex,854,0.925,1,1,1
1,1876,easy,present,complex,855,1.938,1,1,1
1,1877,easy,present,complex,856,0.673,1,1,1
1,1878,easy,present,complex,857,0.810,1,1,1
1,1879,easy,present,complex,858,0.660,1,1,1
1,1880,easy,present,complex,859,0.629,1,1,1
1,1881,easy,present,complex,860,0.923,1,1,1
1,1882,easy,present,complex,861,1.181,1,1,1
1,1883,easy,present,complex,862,0.746,1,1,1
1,1884,easy,present,complex,863,1.202,1,1,1
1,1885,easy,present,complex,864,0.662,1,1,1
1,1886,easy,present,complex,865,0.708,1,1,1
1,1887,easy,present,complex,866,1.285,1,1,1
1,1888,easy,present,complex,867,0.820,1,1,1
1,1889,easy,present,complex,868,0.883,1,1,1
1,1890,easy,present,complex,869,0.625,1,1,1
1,1891,easy,present,complex,870,0.665,1,1,1
1,1892,easy,present,complex,871,0.637,1,1,1
1,1893,easy,present,complex,872,1.295,1,1,1
1,1894,easy,present,complex,873,0.672,1,1,1
1,1895,easy,present,complex,874,1.141,1,1,1
1,1896,easy,present,complex,875,0.751,1,1,1
1,1897,easy,present,complex,876,1.062,1,1,1
1,1898,easy,present,complex,877,0.756,1,1,1
1,1899,easy,present,complex,878,0.722,1,1,1
1,1900,easy,present,complex,879,0.652,1,1,1
1,1901,easy,present,complex,880,0.729,1,1,1
1,1902,easy,present,complex,881,0.810,1,1,1
1,1903,easy,present,complex,882,1.087,1,1,1
1,1904,easy,present,complex,883,0.796,1,1,1
1,1905,easy,present,complex,884,0.841,1,1,1
1,1906,easy,present,complex,885,0.617,1,1,1
1,1907,easy,present,complex,886,0.780,1,1,1
1,1908,easy,present,complex,887,0.942,1,1,1
1,1909,easy,present,complex,888,0.706,1,1,1
1,1910,easy,present,complex,889,0.948,1,1,1
1,1911,easy,present,complex,890,0.823,1,1,1
1,1912,easy,present,complex,891,0.620,1,1,1
1,1913,easy,present,complex,892,1.026,1,1,1
1,1914,easy,present,complex,893,0.851,1,1,1
1,1915,easy,present,complex,894,0.650,1,1,1
1,1916,easy,present,complex,895,0.809,1,1,1
1,1917,easy,present,complex,896,0.728,1,1,1
1,1918,easy,present,complex,897,1.219,1,1,1
1,1919,easy,present,complex,898,0.726,1,1,1
1,1920,easy,present,complex,899,1.534,1,1,1
1,1921,easy,present,complex,900,0.844,1,1,1
1,1922,easy,present,complex,901,0.741,1,1,1
1,1923,easy,present,complex,902,1.083,1,1,1
1,1924,easy,present,complex,903,0.950,1,1,1
1,1925,easy,present,complex,904,0.778,1,1,1
1,1926,easy,present,complex,905,0.898,1,1,1
1,1927,easy,present,complex,906,1.033,1,1,1
1,1928,easy,present,complex,907,1.146,1,1,1
1,1929,easy,present,complex,908,1.090,1,1,1
1,1930,easy,present,complex,909,0.682,1,1,1
1,1931,easy,present,complex,910,1.102,1,1,1
1,1932,easy,present,complex,911,0.639,1,1,1
1,1933,easy,present,complex,912,0.698,1,1,1
1,1934,easy,present,complex,913,0.892,1,1,1
1,1935,easy,present,complex,914,0.662,1,1,1
1,1936,easy,present,complex,915,0.876,1,1,1
1,1937,easy,present,complex,916,0.735,1,1,1
1,1938,easy,present,complex,917,0.788,1,1,1
1,1939,easy,present,complex,918,0.738,1,1,1
1,1940,easy,present,complex,919,0.641,1,1,1
1,1941,easy,present,complex,920,0.820,1,1,1
1,1942,easy,present,complex,921,0.884,1,1,1
1,1943,easy,present,complex,922,0.731,1,1,1
1,1944,easy,present,complex,923,1.801,1,1,1
1,1945,easy,present,complex,924,0.765,1,1,1
1,1946,easy,present,complex,925,0.946,1,1,1
1,1947,easy,present,complex,926,0.899,1,1,1
1,1948,easy,present,complex,927,1.706,1,1,1
1,1949,easy,present,complex,928,1.345,1,1,1
1,1950,easy,present,complex,929,0.676,1,1,1
1,1951,easy,present,complex,930,0.651,1,1,1
1,1952,easy,present,complex,931,1.074,1,1,1
1,1953,easy,present,complex,932,1.297,1,1,1
1,1954,easy,present,complex,933,0.816,1,1,1
1,1955,easy,present,complex,934,0.943,1,1,1
1,1956,easy,present,complex,935,0.640,1,1,1
1,1957,easy,present,complex,936,0.704,1,1,1
1,1958,easy,present,complex,937,0.679,1,1,1
1,1959,easy,present,complex,938,0.875,1,1,1
1,1960,easy,present,complex,939,0.694,1,1,1
1,1961,easy,present,complex,940,0.640,1,1,1
1,1962,easy,present,complex,941,0.732,1,1,1
1,1963,easy,present,complex,942,0.933,1,1,1
1,1964,easy,present,complex,943,0.863,1,1,1
1,1965,easy,present,complex,944,0.746,1,1,1
1,1966,easy,present,complex,945,1.113,1,1,1
1,1967,easy,present,complex,946,0.722,1,1,1
1,1968,easy,present,complex,947,0.717,1,1,1
1,1969,easy,present,complex,948,0.855,1,1,1
1,1970,easy,present,complex,949,0.809,1,1,1
1,1971,easy,present,complex,950,0.795,1,1,1
1,1972,easy,present,complex,951,0.679,1,1,1
1,1973,easy,present,complex,952,0.820,1,1,1
1,1974,easy,present,complex,953,0.718,1,1,1
1,1975,easy,present,complex,954,0.773,1,1,1
1,1976,easy,present,complex,955,0.983,1,1,1
1,1977,easy,present,complex,956,1.481,1,1,1
1,1978,easy,present,complex,957,1.027,1,1,1
1,1979,easy,present,complex,958,0.775,1,1,1
1,1980,easy,present,complex,959,0.870,1,1,1
1,1981,easy,present,complex,960,0.998,1,1,1
1,1982,easy,present,complex,961,0.778,1,1,1
1,1983,easy,present,complex,962,0.756,1,1,1
1,1984,easy,present,complex,963,0.672,1,1,1
1,1985,easy,present,complex,964,0.987,1,1,1
1,1986,easy,present,complex,965,1.120,1,1,1
1,1987,easy,present,complex,966,0.736,1,1,1
1,1988,easy,present,complex,967,1.038,1,1,1
1,1989,easy,present,complex,968,0.885,1,1,1
1,1990,easy,present,complex,969,1.038,1,1,1
1,1991,easy,present,complex,970,0.776,1,1,1
1,1992,easy,present,complex,971,0.999,1,1,1
1,1993,easy,present,complex,972,0.777,1,1,1
1,1994,easy,present,complex,973,0.650,1,1,1
1,1995,easy,present,complex,974,0.848,1,1,1
1,1996,easy,present,complex,975,0.769,0,1,0
1,1997,easy,present,complex,976,0.701,0,1,0
1,1998,easy,present,complex,977,0.765,0,1,0
1,1999,easy,present,complex,978,0.687,0,1,0
1,2000,easy,present,complex,979,1.013,0,1,0
1,2001,easy,present,complex,980,0.851,0,1,0
1,2002,easy,present,complex,981,0.958,0,1,0
1,2003,easy,present,complex,982,0.754,0,1,0
1,2004,easy,present,complex,983,0.693,0,1,0
1,2005,easy,present,complex,984,0.632,0,1,0
1,2006,easy,present,complex,985,0.670,0,1,0
1,2007,easy,present,complex,986,0.640,0,1,0
1,2008,easy,present,complex,987,0.687,0,1,0
1,2009,easy,present,complex,988,1.278,0,1,0
1,2010,easy,present,complex,989,0.645,0,1,0
1,2011,easy,present,complex,990,0.831,0,1,0
1,2012,easy,present,complex,991,0.842,0,1,0
1,2013,easy,present,complex,992,1.045,0,1,0
1,2014,easy,present,complex,993,1.042,0,1,0
1,2015,easy,present,complex,994,0.769,0,1,0
1,2016,easy,present,complex,995,1.435,0,1,0
1,2017,easy,present,complex,996,0.632,0,1,0
1,2018,easy,present,complex,997,0.644,0,1,0
1,2019,easy,present,complex,998,0.813,0,1,0
1,2020,easy,present,complex,999,0.687,0,1,0
1,2021,easy,present,complex,1000,1.168,0,1,0
1,2022,easy,present,complex,1001,0.749,0,1,0
1,2023,easy,present,complex,1002,0.874,0,1,0
1,2024,easy,present,complex,1003,0.934,0,1,0
1,2025,easy,present,complex,1004,0.782,0,1,0
1,2026,easy,present,complex,1005,0.673,0,1,0
1,2027,easy,present,complex,1006,1.386,0,1,0
1,2028,easy,present,complex,1007,0.655,0,1,0
1,2029,easy,present,complex,1008,1.752,0,1,0
1,2030,easy,present,complex,1009,0.684,0,1,0
1,2031,easy,present,complex,1010,0.866,0,1,0
1,2032,easy,present,complex,1011,0.827,0,1,0
1,2033,easy,present,complex,1012,0.658,0,1,0
1,2034,easy,present,complex,1013,0.946,0,1,0
1,2035,easy,present,complex,1014,0.663,0,1,0
1,2036,easy,present,complex,1015,0.711,0,1,0
1,2037,easy,present,complex,1016,0.714,0,1,0
1,2038,easy,present,complex,1017,0.717,0,1,0
1,2039,easy,present,complex,1018,0.637,0,1,0
1,2040,easy,present,complex,1019,0.686,0,1,0
1,2041,easy,present,complex,1020,1.017,0,1,0
1,2042,easy,present,complex,1021,0.733,0,1,0
1,2043,easy,present,complex,1022,0.655,0,1,0
1,2044,easy,absent,simple,1,0.530,1,0,0
1,2045,easy,absent,simple,2,0.595,1,0,0
1,2046,easy,absent,simple,3,1.095,1,0,0
1,2047,easy,absent,simple,4,0.789,1,0,0
1,2048,easy,absent,simple,5,0.859,1,0,0
1,2049,easy,absent,simple,6,0.479,1,0,0
1,2050,easy,absent,simple,7,0.572,1,0,0
1,2051,easy,absent,simple,8,0.518,1,0,0
1,2052,easy,absent,simple,9,0.482,1,0,0
1,2053,easy,absent,simple,10,0.826,1,0,0
1,2054,easy,absent,simple,11,0.572,1,0,0
1,2055,easy,absent,simple,12,0.599,1,0,0
1,2056,easy,absent,simple,13,0.739,1,0,0
1,2057,easy,absent,simple,14,0.932,1,0,0
1,2058,easy,absent,simple,15,0.702,1,0,0
1,2059,easy,absent,simple,16,0.473,1,0,0
1,2060,easy,absent,simple,17,0.660,1,0,0
1,2061,easy,absent,simple,18,0.604,1,0,0
1,2062,easy,absent,simple,19,0.453,1,0,0
1,2063,easy,absent,simple,20,0.953,1,0,0
1,2064,easy,absent,simple,21,0.705,1,0,0
1,2065,easy,absent,simple,22,0.457,1,0,0
1,2066,easy,absent,simple,23,0.835,1,0,0
1,2067,easy,absent,simple,24,0.834,1,0,0
1,2068,easy,absent,simple,25,0.783,1,0,0
1,2069,easy,absent,simple,26,1.343,1,0,0
1,2070,easy,absent,simple,27,0.554,1,0,0
1,2071,easy,absent,simple,28,0.504,1,0,0
1,2072,easy,absent,simple,29,0.610,1,0,0
1,2073,easy,absent,simple,30,0.577,1,0,0
1,2074,easy,absent,simple,31,0.839,1,0,0
1,2075,easy,absent,simple,32,0.663,1,0,0
1,2076,easy,absent,simple,33,0.589,1,0,0
1,2077,easy,absent,simple,34,0.835,1,0,0
1,2078,easy,absent,simple,35,0.513,1,0,0
1,2079,easy,absent,simple,36,0.815,1,0,0
1,2080,easy,absent,simple,37,0.456,1,0,0
1,2081,easy,absent,simple,38,0.529,1,0,0
1,2082,easy,absent,simple,39,0.510,0,0,1
1,2083,easy,absent,simple,40,0.582,0,0,1
1,2084,easy,absent,simple,41,0.545,0,0,1
1,2085,easy,absent,simple,42,0.702,0,0,1
1,2086,easy,absent,simple,43,0.591,0,0,1
1,2087,easy,absent,simple,44,0.464,0,0,1
1,2088,easy,absent,simple,45,0.506,0,0,1
1,2089,easy,absent,simple,46,0.620,0,0,1
1,2090,easy,absent,simple,47,0.824,0,0,1
1,2091,easy,absent,simple,48,0.684,0,0,1
1,2092,easy,absent,simple,49,0.470,0,0,1
1,2093,easy,absent,simple,50,0.676,0,0,1
1,2094,easy,absent,simple,51,0.883,0,0,1
1,2095,easy,absent,simple,52,0.512,0,0,1
1,2096,easy,absent,simple,53,0.619,0,0,1
1,2097,easy,absent,simple,54,0.808,0,0,1
1,2098,easy,absent,simple,55,0.491,0,0,1
1,2099,easy,absent,simple,56,0.480,0,0,1
1,2100,easy,absent,simple,57,1.002,0,0,1
1,2101,easy,absent,simple,58,0.739,0,0,1
1,2102,easy,absent,simple,59,0.775,0,0,1
1,2103,easy,absent,simple,60,0.891,0,0,1
1,2104,easy,absent,simple,61,0.644,0,0,1
1,2105,easy,absent,simple,62,0.615,0,0,1
1,2106,easy,absent,simple,63,0.645,0,0,1
1,2107,easy,absent,simple,64,0.755,0,0,1
1,2108,easy,absent,simple,65,0.572,0,0,1
1,2109,easy,absent,simple,66,0.455,0,0,1
1,2110,easy,absent,simple,67,0.477,0,0,1
1,2111,easy,absent,simple,68,1.300,0,0,1
1,2112,easy,absent,simple,69,0.425,0,0,1
1,2113,easy,absent,simple,70,0.748,0,0,1
1,2114,easy,absent,simple,71,1.121,0,0,1
1,2115,easy,absent,simple,72,0.473,0,0,1
1,2116,easy,absent,simple,73,0.757,0,0,1
1,2117,easy,absent,simple,74,0.536,0,0,1
1,2118,easy,absent,simple,75,0.520,0,0,1
1,2119,easy,absent,simple,76,0.901,0,0,1
1,2120,easy,absent,simple,77,1.010,0,0,1
1,2121,easy,absent,simple,78,0.556,0,0,1
1,2122,easy,absent,simple,79,0.691,0,0,1
1,2123,easy,absent,simple,80,0.491,0,0,1
1,2124,easy,absent,simple,81,0.822,0,0,1
1,2125,easy,absent,simple,82,0.954,0,0,1
1,2126,easy,absent,simple,83,0.545,0,0,1
1,2127,easy,absent,simple,84,0.707,0,0,1
1,2128,easy,absent,simple,85,0.941,0,0,1
1,2129,easy,absent,simple,86,0.906,0,0,1
1,2130,easy,absent,simple,87,0.657,0,0,1
1,2131,easy,absent,simple,88,0.582,0,0,1
1,2132,easy,absent,simple,89,0.634,0,0,1
1,2133,easy,absent,simple,90,0.861,0,0,1
1,2134,easy,absent,simple,91,0.759,0,0,1
1,2135,easy,absent,simple,92,0.620,0,0,1
1,2136,easy,absent,simple,93,0.620,0,0,1
1,2137,easy,absent,simple,94,0.990,0,0,1
1,2138,easy,absent,simple,95,0.512,0,0,1
1,2139,easy,absent,simple,96,0.456,0,0,1
1,2140,easy,absent,simple,97,0.722,0,0,1
1,2141,easy,absent,simple,98,0.743,0,0,1
1,2142,easy,absent,simple,99,0.656,0,0,1
1,2143,easy,absent,simple,100,0.526,0,0,1
1,2144,easy,absent,simple,101,0.538,0,0,1
1,2145,easy,absent,simple,102,0.684,0,0,1
1,2146,easy,absent,simple,103,0.528,0,0,1
1,2147,easy,absent,simple,104,0.623,0,0,1
1,2148,easy,absent,simple,105,0.551,0,0,1
1,2149,easy,absent,simple,106,0.626,0,0,1
1,2150,easy,absent,simple,107,0.515,0,0,1
1,2151,easy,absent,simple,108,0.500,0,0,1
1,2152,easy,absent,simple,109,0.767,0,0,1
1,2153,easy,absent,simple,110,0.574,0,0,1
1,2154,easy,absent,simple,111,0.511,0,0,1
1,2155,easy,absent,simple,112,0.912,0,0,1
1,2156,easy,absent,simple,113,0.577,0,0,1
1,2157,easy,absent,simple,114,0.466,0,0,1
1,2158,easy,absent,simple,115,0.749,0,0,1
1,2159,easy,absent,simple,116,0.535,0,0,1
1,2160,easy,absent,simple,117,0.654,0,0,1
1,2161,easy,absent,simple,118,0.685,0,0,1
1,2162,easy,absent,simple,119,1.218,0,0,1
1,2163,easy,absent,simple,120,0.496,0,0,1
1,2164,easy,absent,simple,121,0.531,0,0,1
1,2165,easy,absent,simple,122,1.081,0,0,1
1,2166,easy,absent,simple,123,0.753,0,0,1
1,2167,easy,absent,simple,124,0.597,0,0,1
1,2168,easy,absent,simple,125,0.766,0,0,1
1,2169,easy,absent,simple,126,0.585,0,0,1
1,2170,easy,absent,simple,127,0.581,0,0,1
1,2171,easy,absent,simple,128,0.489,0,0,1
1,2172,easy,absent,simple,129,0.630,0,0,1
1,2173,easy,absent,simple,130,0.526,0,0,1
1,2174,easy,absent,simple,131,0.694,0,0,1
1,2175,easy,absent,simple,132,0.578,0,0,1
1,2176,easy,absent,simple,133,0.908,0,0,1
1,2177,easy,absent,simple,134,0.802,0,0,1
1,2178,easy,absent,simple,135,0.482,0,0,1
1,2179,easy,absent,simple,136,0.666,0,0,1
1,2180,easy,absent,simple,137,0.751,0,0,1
1,2181,easy,absent,simple,138,0.630,0,0,1
1,2182,easy,absent,simple,139,0.467,0,0,1
1,2183,easy,absent,simple,140,0.622,0,0,1
1,2184,easy,absent,simple,141,0.593,0,0,1
1,2185,easy,absent,simple,142,0.545,0,0,1
1,2186,easy,absent,simple,143,0.663,0,0,1
1,2187,easy,absent,simple,144,0.549,0,0,1
1,2188,easy,absent,simple,145,0.517,0,0,1
1,2189,easy,absent,simple,146,0.767,0,0,1
1,2190,easy,absent,simple,147,0.507,0,0,1
1,2191,easy,absent,simple,148,0.839,0,0,1
1,2192,easy,absent,simple,149,1.353,0,0,1
1,2193,easy,absent,simple,150,0.599,0,0,1
1,2194,easy,absent,simple,151,0.849,0,0,1
1,2195,easy,absent,simple,152,0.485,0,0,1
1,2196,easy,absent,simple,153,0.835,0,0,1
1,2197,easy,absent,simple,154,1.219,0,0,1
1,2198,easy,absent,simple,155,0.628,0,0,1
1,2199,easy,absent,simple,156,0.520,0,0,1
1,2200,easy,absent,simple,157,0.490,0,0,1
1,2201,easy,absent,simple,158,1.032,0,0,1
1,2202,easy,absent,simple,159,0.550,0,0,1
1,2203,easy,absent,simple,160,0.622,0,0,1
1,2204,easy,absent,simple,161,0.593,0,0,1
1,2205,easy,absent,simple,162,0.594,0,0,1
1,2206,easy,absent,simple,163,0.797,0,0,1
1,2207,easy,absent,simple,164,1.091,0,0,1
1,2208,easy,absent,simple,165,0.697,0,0,1
1,2209,easy,absent,simple,166,1.187,0,0,1
1,2210,easy,absent,simple,167,0.499,0,0,1
1,2211,easy,absent,simple,168,0.654,0,0,1
1,2212,easy,absent,simple,169,0.725,0,0,1
1,2213,easy,absent,simple,170,0.752,0,0,1
1,2214,easy,absent,simple,171,0.786,0,0,1
1,2215,easy,absent,simple,172,0.551,0,0,1
1,2216,easy,absent,simple,173,0.953,0,0,1
1,2217,easy,absent,simple,174,0.479,0,0,1
1,2218,easy,absent,simple,175,0.533,0,0,1
1,2219,easy,absent,simple,176,0.606,0,0,1
1,2220,easy,absent,simple,177,0.669,0,0,1
1,2221,easy,absent,simple,178,0.538,0,0,1
1,2222,easy,absent,simple,179,1.014,0,0,1
1,2223,easy,absent,simple,180,0.600,0,0,1
1,2224,easy,absent,simple,181,0.462,0,0,1
1,2225,easy,absent,simple,182,0.857,0,0,1
1,2226,easy,absent,simple,183,1.236,0,0,1
1,2227,easy,absent,simple,184,0.558,0,0,1
1,2228,easy,absent,simple,185,0.650,0,0,1
1,2229,easy,absent,simple,186,0.661,0,0,1
1,2230,easy,absent,simple,187,0.837,0,0,1
1,2231,easy,absent,simple,188,0.483,0,0,1
1,2232,easy,absent,simple,189,0.890,0,0,1
1,2233,easy,absent,simple,190,0.756,0,0,1
1,2234,easy,absent,simple,191,0.658,0,0,1
1,2235,easy,absent,simple,192,0.619,0,0,1
1,2236,easy,absent,simple,193,0.671,0,0,1
1,2237,easy,absent,simple,194,0.695,0,0,1
1,2238,easy,absent,simple,195,1.065,0,0,1
1,2239,easy,absent,simple,196,0.539,0,0,1
1,2240,easy,absent,simple,197,0.894,0,0,1
1,2241,easy,absent,simple,198,0.597,0,0,1
1,2242,easy,absent,simple,199,0.719,0,0,1
1,2243,easy,absent,simple,200,0.844,0,0,1
1,2244,easy,absent,simple,201,0.756,0,0,1
1,2245,easy,absent,simple,202,0.826,0,0,1
1,2246,easy,absent,simple,203,0.699,0,0,1
1,2247,easy,absent,simple,204,0.833,0,0,1
1,2248,easy,absent,simple,205,1.011,0,0,1
1,2249,easy,absent,simple,206,1.002,0,0,1
1,2250,easy,absent,simple,207,0.547,0,0,1
1,2251,easy,absent,simple,208,1.283,0,0,1
1,2252,easy,absent,simple,209,0.437,0,0,1
1,2253,easy,absent,simple,210,0.683,0,0,1
1,2254,easy,absent,simple,211,0.619,0,0,1
1,2255,easy,absent,simple,212,0.514,0,0,1
1,2256,easy,absent,simple,213,0.638,0,0,1
1,2257,easy,absent,simple,214,0.445,0,0,1
1,2258,easy,absent,simple,215,0.646,0,0,1
1,2259,easy,absent,simple,216,0.908,0,0,1
1,2260,easy,absent,simple,217,0.479,0,0,1
1,2261,easy,absent,simple,218,0.546,0,0,1
1,2262,easy,absent,simple,219,0.691,0,0,1
1,2263,easy,absent,simple,220,0.563,0,0,1
1,2264,easy,absent,simple,221,0.584,0,0,1
1,2265,easy,absent,simple,222,0.554,0,0,1
1,2266,easy,absent,simple,223,0.612,0,0,1
1,2267,easy,absent,simple,224,0.569,0,0,1
1,2268,easy,absent,simple,225,0.481,0,0,1
1,2269,easy,absent,simple,226,0.502,0,0,1
1,2270,easy,absent,simple,227,0.448,0,0,1
1,2271,easy,absent,simple,228,0.606,0,0,1
1,2272,easy,absent,simple,229,0.895,0,0,1
1,2273,easy,absent,simple,230,0.456,0,0,1
1,2274,easy,absent,simple,231,0.714,0,0,1
1,2275,easy,absent,simple,232,0.587,0,0,1
1,2276,easy,absent,simple,233,0.934,0,0,1
1,2277,easy,absent,simple,234,0.562,0,0,1
1,2278,easy,absent,simple,235,0.739,0,0,1
1,2279,easy,absent,simple,236,0.580,0,0,1
1,2280,easy,absent,simple,237,0.643,0,0,1
1,2281,easy,absent,simple,238,0.806,0,0,1
1,2282,easy,absent,simple,239,1.255,0,0,1
1,2283,easy,absent,simple,240,0.478,0,0,1
1,2284,easy,absent,simple,241,0.636,0,0,1
1,2285,easy,absent,simple,242,0.477,0,0,1
1,2286,easy,absent,simple,243,0.785,0,0,1
1,2287,easy,absent,simple,244,1.405,0,0,1
1,2288,easy,absent,simple,245,0.671,0,0,1
1,2289,easy,absent,simple,246,0.449,0,0,1
1,2290,easy,absent,simple,247,0.438,0,0,1
1,2291,easy,absent,simple,248,0.542,0,0,1
1,2292,easy,absent,simple,249,0.572,0,0,1
1,2293,easy,absent,simple,250,0.889,0,0,1
1,2294,easy,absent,simple,251,0.608,0,0,1
1,2295,easy,absent,simple,252,1.715,0,0,1
1,2296,easy,absent,simple,253,0.959,0,0,1
1,2297,easy,absent,simple,254,0.620,0,0,1
1,2298,easy,absent,simple,255,0.692,0,0,1
1,2299,easy,absent,simple,256,0.542,0,0,1
1,2300,easy,absent,simple,257,0.543,0,0,1
1,2301,easy,absent,simple,258,0.471,0,0,1
1,2302,easy,absent,simple,259,0.642,0,0,1
1,2303,easy,absent,simple,260,0.454,0,0,1
1,2304,easy,absent,simple,261,0.596,0,0,1
1,2305,easy,absent,simple,262,0.549,0,0,1
1,2306,easy,absent,simple,263,0.820,0,0,1
1,2307,easy,absent,simple,264,0.571,0,0,1
1,2308,easy,absent,simple,265,1.000,0,0,1
1,2309,easy,absent,simple,266,0.497,0,0,1
1,2310,easy,absent,simple,267,1.075,0,0,1
1,2311,easy,absent,simple,268,0.668,0,0,1
1,2312,easy,absent,simple,269,0.472,0,0,1
1,2313,easy,absent,simple,270,0.620,0,0,1
1,2314,easy,absent,simple,271,0.527,0,0,1
1,2315,easy,absent,simple,272,0.783,0,0,1
1,2316,easy,absent,simple,273,0.708,0,0,1
1,2317,easy,absent,simple,274,0.439,0,0,1
1,2318,easy,absent,simple,275,0.587,0,0,1
1,2319,easy,absent,simple,276,0.961,0,0,1
1,2320,easy,absent,simple,277,0.581,0,0,1
1,2321,easy,absent,simple,278,0.777,0,0,1
1,2322,easy,absent,simple,279,0.466,0,0,1
1,2323,easy,absent,simple,280,0.930,0,0,1
1,2324,easy,absent,simple,281,0.621,0,0,1
1,2325,easy,absent,simple,282,1.142,0,0,1
1,2326,easy,absent,simple,283,0.638,0,0,1
1,2327,easy,absent,simple,284,0.802,0,0,1
1,2328,easy,absent,simple,285,1.288,0,0,1
1,2329,easy,absent,simple,286,0.763,0,0,1
1,2330,easy,absent,simple,287,0.665,0,0,1
1,2331,easy,absent,simple,288,0.564,0,0,1
1,2332,easy,absent,simple,289,0.418,0,0,1
1,2333,easy,absent,simple,290,0.592,0,0,1
1,2334,easy,absent,simple,291,0.583,0,0,1
1,2335,easy,absent,simple,292,0.863,0,0,1
1,2336,easy,absent,simple,293,0.496,0,0,1
1,2337,easy,absent,simple,294,0.776,0,0,1
1,2338,easy,absent,simple,295,0.398,0,0,1
